Subject,Sex,Picture,CorrectAnswer,CR,Emotion,Stimulus1.RESP,Stimulus1.RT,Stimulus1.RTTime,Stimulus1.Duration
1,female,7150.jpg,a,different,neutral,,0,0,4000
1,female,8230.jpg,l,same,negative,,0,0,4000
1,female,7188.jpg,l,same,neutral,,0,0,4000
1,female,3001a.jpg,a,different,negative,,0,0,4000
1,female,2393.jpg,a,different,neutral,,0,0,4000
1,female,7042a.jpg,a,different,neutral,,0,0,4000
1,female,3053a.jpg,a,different,negative,,0,0,4000
1,female,2981.jpg,l,same,negative,,0,0,4000
1,female,2206.jpg,a,different,neutral,,0,0,4000
1,female,3059a.jpg,a,different,negative,,0,0,4000
1,female,1910.jpg,a,different,neutral,,0,0,4000
1,female,3069.jpg,l,same,negative,,0,0,4000
1,female,2352.jpg,a,different,negative,,0,0,4000
1,female,7080a.jpg,a,different,neutral,,0,0,4000
1,female,7100.jpg,a,different,neutral,,0,0,4000
1,female,3064.jpg,l,same,negative,,0,0,4000
1,female,3103.jpg,l,same,negative,,0,0,4000
1,female,7038a.jpg,a,different,neutral,,0,0,4000
1,female,7056.jpg,a,different,neutral,,0,0,4000
1,female,3062a.jpg,a,different,negative,,0,0,4000
1,female,7179.jpg,l,same,neutral,,0,0,4000
1,female,2730.jpg,a,different,negative,,0,0,4000
1,female,3063a.jpg,a,different,negative,,0,0,4000
1,female,2850a.jpg,a,different,neutral,,0,0,4000
1,female,2038.jpg,l,same,neutral,,0,0,4000
1,female,6838.jpg,a,different,negative,,0,0,4000
1,female,7052.jpg,a,different,neutral,,0,0,4000
1,female,2320.jpg,l,same,neutral,,0,0,4000
1,female,3071a.jpg,a,different,negative,,0,0,4000
1,female,2580.jpg,l,same,neutral,,0,0,4000
1,female,3000.jpg,a,different,negative,,0,0,4000
1,female,3110a.jpg,a,different,negative,,0,0,4000
1,female,7175a.jpg,a,different,neutral,,0,0,4000
1,female,9321.jpg,l,same,negative,,0,0,4000
1,female,9433.jpg,l,same,negative,,0,0,4000
1,female,7187.jpg,a,different,neutral,,0,0,4000
1,female,7493a.jpg,a,different,neutral,,0,0,4000
1,female,3010.jpg,a,different,negative,,0,0,4000
1,female,3130.jpg,l,same,negative,,0,0,4000
1,female,7011.jpg,l,same,neutral,,0,0,4000
1,female,3150a.jpg,a,different,negative,,0,0,4000
1,female,2880a.jpg,a,different,neutral,,0,0,4000
1,female,3068.jpg,a,different,negative,,0,0,4000
1,female,3080.jpg,a,different,negative,,0,0,4000
1,female,7034a.jpg,a,different,neutral,,0,0,4000
1,female,7045.jpg,a,different,neutral,,0,0,4000
1,female,3168.jpg,l,same,negative,,0,0,4000
1,female,3100a.jpg,a,different,negative,,0,0,4000
1,female,7500.jpg,l,same,neutral,,0,0,4000
1,female,7205.jpg,a,different,neutral,,0,0,4000
1,female,8485a.jpg,a,different,negative,,0,0,4000
1,female,7700.jpg,l,same,neutral,,0,0,4000
1,female,9921.jpg,l,same,negative,,0,0,4000
1,female,7491.jpg,a,different,neutral,,0,0,4000
1,female,7550a.jpg,a,different,neutral,,0,0,4000
1,female,9570a.jpg,a,different,negative,,0,0,4000
1,female,9908.jpg,a,different,negative,,0,0,4000
1,female,7160.jpg,l,same,neutral,,0,0,4000
1,female,7547.jpg,a,different,neutral,,0,0,4000
1,female,9500.jpg,a,different,negative,,0,0,4000
1,female,7705a.jpg,a,different,neutral,,0,0,4000
1,female,9904.jpg,l,same,negative,,0,0,4000
1,female,9414a.jpg,a,different,negative,,0,0,4000
1,female,9210.jpg,a,different,neutral,,0,0,4000
1,female,9360.jpg,l,same,neutral,,0,0,4000
1,female,9413.jpg,l,same,negative,,0,0,4000
1,female,7950a.jpg,a,different,neutral,,0,0,4000
1,female,9410a.jpg,a,different,negative,,0,0,4000
1,female,9252.jpg,a,different,negative,,0,0,4000
1,female,7026a.jpg,a,different,neutral,,0,0,4000
1,female,7035.jpg,l,same,neutral,,0,0,4000
1,female,3120.jpg,a,different,negative,,0,0,4000
1,female,7039.jpg,a,different,neutral,,0,0,4000
1,female,3212.jpg,l,same,negative,,0,0,4000
1,female,3170a.jpg,a,different,negative,,0,0,4000
1,female,7014.jpg,l,same,neutral,,0,0,4000
1,female,3131.jpg,a,different,negative,,0,0,4000
1,female,7010a.jpg,a,different,neutral,,0,0,4000
1,female,7009a.jpg,a,different,neutral,,0,0,4000
1,female,3261.jpg,l,same,negative,,0,0,4000
1,female,7060.jpg,l,same,neutral,,0,0,4000
1,female,6830.jpg,a,different,negative,,0,0,4000
1,female,3530.jpg,l,same,negative,,0,0,4000
1,female,7002a.jpg,a,different,neutral,,0,0,4000
1,female,3195.jpg,a,different,negative,,0,0,4000
1,female,6570a.jpg,a,different,negative,,0,0,4000
1,female,7055.jpg,l,same,neutral,,0,0,4000
1,female,7020.jpg,a,different,neutral,,0,0,4000
1,female,6520.jpg,a,different,negative,,0,0,4000
1,female,6834.jpg,l,same,negative,,0,0,4000
1,female,7016.jpg,a,different,neutral,,0,0,4000
1,female,7000a.jpg,a,different,neutral,,0,0,4000
1,female,3500.jpg,a,different,negative,,0,0,4000
1,female,5471.jpg,l,same,neutral,,0,0,4000
1,female,3005.jpg,l,same,negative,,0,0,4000
1,female,3019a.jpg,a,different,negative,,0,0,4000
1,female,5725.jpg,a,different,neutral,,0,0,4000
1,female,5711.jpg,a,different,neutral,,0,0,4000
1,female,6230a.jpg,a,different,negative,,0,0,4000
1,female,5750.jpg,l,same,neutral,,0,0,4000
1,female,5870a.jpg,a,different,neutral,,0,0,4000
1,female,3400a.jpg,a,different,negative,,0,0,4000
1,female,3213.jpg,a,different,negative,,0,0,4000
1,female,7030.jpg,l,same,neutral,,0,0,4000
1,female,6821.jpg,l,same,negative,,0,0,4000
1,female,7012.jpg,a,different,neutral,,0,0,4000
1,female,5390a.jpg,a,different,neutral,,0,0,4000
1,female,6370.jpg,l,same,negative,,0,0,4000
1,female,6415.jpg,a,different,negative,,0,0,4000
1,female,7003.jpg,a,different,neutral,,0,0,4000
1,female,6021a.jpg,a,different,negative,,0,0,4000
1,female,5500a.jpg,a,different,neutral,,0,0,4000
1,female,7041.jpg,l,same,neutral,,0,0,4000
1,female,6212.jpg,a,different,negative,,0,0,4000
1,female,7050.jpg,l,same,neutral,,0,0,4000
1,female,6550a.jpg,a,different,negative,,0,0,4000
1,female,9810.jpg,a,different,negative,,0,0,4000
1,female,7161.jpg,a,different,neutral,,0,0,4000
1,female,9800.jpg,l,same,negative,,0,0,4000
1,female,9300a.jpg,a,different,negative,,0,0,4000
1,female,7017.jpg,l,same,neutral,,0,0,4000
1,female,7217.jpg,l,same,neutral,,0,0,4000
1,female,9425.jpg,a,different,negative,,0,0,4000
1,female,9412.jpg,a,different,negative,,0,0,4000
1,female,7090a.jpg,a,different,neutral,,0,0,4000
1,female,7140.jpg,l,same,neutral,,0,0,4000
1,female,9187.jpg,a,different,negative,,0,0,4000
1,female,7040a.jpg,a,different,neutral,,0,0,4000
1,female,9183.jpg,l,same,negative,,0,0,4000
1,female,7006a.jpg,a,different,neutral,,0,0,4000
1,female,7004a.jpg,a,different,neutral,,0,0,4000
1,female,9050.jpg,a,different,negative,,0,0,4000
1,female,7031.jpg,a,different,neutral,,0,0,4000
1,female,9250.jpg,l,same,negative,,0,0,4000
1,female,9163a.jpg,a,different,negative,,0,0,4000
1,female,5720.jpg,l,same,neutral,,0,0,4000
1,female,6510.jpg,l,same,negative,,0,0,4000
1,female,5740a.jpg,a,different,neutral,,0,0,4000
1,female,5800.jpg,a,different,neutral,,0,0,4000
1,female,6315a.jpg,a,different,negative,,0,0,4000
1,female,3015.jpg,l,same,negative,,0,0,4000
1,female,2036a.jpg,a,different,neutral,,0,0,4000
1,female,3016a.jpg,a,different,negative,,0,0,4000
1,female,5130.jpg,a,different,neutral,,0,0,4000
1,female,3030.jpg,a,different,negative,,0,0,4000
1,female,1450.jpg,l,same,neutral,,0,0,4000
1,female,2683.jpg,l,same,negative,,0,0,4000
1,female,1525a.jpg,a,different,negative,,0,0,4000
1,female,7001.jpg,l,same,neutral,,0,0,4000
1,female,1333.jpg,a,different,neutral,,0,0,4000
10,female,7150.jpg,a,different,neutral,a,1142,283030,4000
10,female,8230.jpg,l,same,negative,l,1592,289646,4000
10,female,7188.jpg,l,same,neutral,a,1672,295910,4000
10,female,3001a.jpg,a,different,negative,l,1377,302782,4000
10,female,2393.jpg,a,different,neutral,a,1106,308694,4000
10,female,7042a.jpg,a,different,neutral,a,1307,315062,4000
10,female,3053a.jpg,a,different,negative,a,1173,321094,4000
10,female,2981.jpg,l,same,negative,l,1886,327974,4000
10,female,2206.jpg,a,different,neutral,a,1143,333398,4000
10,female,3059a.jpg,a,different,negative,l,1159,339581,4000
10,female,1910.jpg,a,different,neutral,a,1103,345725,4000
10,female,3069.jpg,l,same,negative,l,1297,352085,4000
10,female,2352.jpg,a,different,negative,a,1305,358277,4000
10,female,7080a.jpg,a,different,neutral,a,1962,366101,4000
10,female,7100.jpg,a,different,neutral,a,970,371309,4000
10,female,3064.jpg,l,same,negative,l,1083,377605,4000
10,female,3103.jpg,l,same,negative,a,1188,383893,4000
10,female,7038a.jpg,a,different,neutral,a,1580,390453,4000
10,female,7056.jpg,a,different,neutral,a,981,396037,4000
10,female,3062a.jpg,a,different,negative,l,3110,404349,4000
10,female,7179.jpg,l,same,neutral,l,887,408309,4000
10,female,2730.jpg,a,different,negative,a,1103,414709,4000
10,female,3063a.jpg,a,different,negative,a,1024,420796,4000
10,female,2850a.jpg,a,different,neutral,a,1200,428156,4000
10,female,2038.jpg,l,same,neutral,a,1777,434916,4000
10,female,6838.jpg,a,different,negative,a,1226,440532,4000
10,female,7052.jpg,a,different,neutral,a,1011,446500,4000
10,female,2320.jpg,l,same,neutral,a,979,452652,4000
10,female,3071a.jpg,a,different,negative,a,2156,460012,4000
10,female,2580.jpg,l,same,neutral,a,1477,465500,4000
10,female,3000.jpg,a,different,negative,l,1061,471284,4000
10,female,3110a.jpg,a,different,negative,a,1342,477732,4000
10,female,7175a.jpg,a,different,neutral,a,2024,484580,4000
10,female,9321.jpg,l,same,negative,l,1127,490884,4000
10,female,9433.jpg,l,same,negative,a,2337,498260,4000
10,female,7187.jpg,a,different,neutral,a,986,503076,4000
10,female,7493a.jpg,a,different,neutral,a,890,509163,4000
10,female,3010.jpg,a,different,negative,l,1611,516051,4000
10,female,3130.jpg,l,same,negative,l,987,521611,4000
10,female,7011.jpg,l,same,neutral,a,1725,528515,4000
10,female,3150a.jpg,a,different,negative,a,1525,534499,4000
10,female,2880a.jpg,a,different,neutral,a,1150,540307,4000
10,female,3068.jpg,a,different,negative,a,1023,546363,4000
10,female,3080.jpg,a,different,negative,a,1280,553787,4000
10,female,7034a.jpg,a,different,neutral,l,1240,559931,4000
10,female,7045.jpg,a,different,neutral,a,986,565843,4000
10,female,3168.jpg,l,same,negative,a,1457,572531,4000
10,female,3100a.jpg,a,different,negative,a,954,578195,4000
10,female,7500.jpg,l,same,neutral,l,1411,584819,4000
10,female,7205.jpg,a,different,neutral,a,1316,590907,4000
10,female,8485a.jpg,a,different,negative,l,2044,597802,4000
10,female,7700.jpg,l,same,neutral,a,1398,603322,4000
10,female,9921.jpg,l,same,negative,l,1190,609298,4000
10,female,7491.jpg,a,different,neutral,a,1751,617042,4000
10,female,7550a.jpg,a,different,neutral,a,1167,622642,4000
10,female,9570a.jpg,a,different,negative,a,1240,628898,4000
10,female,9908.jpg,a,different,negative,a,1233,635074,4000
10,female,7160.jpg,l,same,neutral,l,1065,641106,4000
10,female,7547.jpg,a,different,neutral,a,889,647114,4000
10,female,9500.jpg,a,different,negative,l,2002,654394,4000
10,female,7705a.jpg,a,different,neutral,a,844,659402,4000
10,female,9904.jpg,l,same,negative,l,2053,666778,4000
10,female,9414a.jpg,a,different,negative,a,1350,672242,4000
10,female,9210.jpg,a,different,neutral,a,1134,679209,4000
10,female,9360.jpg,l,same,neutral,l,1438,685713,4000
10,female,9413.jpg,l,same,negative,l,2439,692881,4000
10,female,7950a.jpg,a,different,neutral,a,976,697601,4000
10,female,9410a.jpg,a,different,negative,a,1280,704089,4000
10,female,9252.jpg,a,different,negative,a,1241,710233,4000
10,female,7026a.jpg,a,different,neutral,a,1201,716377,4000
10,female,7035.jpg,l,same,neutral,l,1243,722585,4000
10,female,3120.jpg,a,different,negative,l,995,728521,4000
10,female,7039.jpg,a,different,neutral,a,876,734585,4000
10,female,3212.jpg,l,same,negative,a,1124,742017,4000
10,female,3170a.jpg,a,different,negative,l,1085,748161,4000
10,female,7014.jpg,l,same,neutral,l,1110,754353,4000
10,female,3131.jpg,a,different,negative,a,1599,761025,4000
10,female,7010a.jpg,a,different,neutral,a,1183,766792,4000
10,female,7009a.jpg,a,different,neutral,l,2647,774440,4000
10,female,3261.jpg,l,same,negative,l,1312,779288,4000
10,female,7060.jpg,l,same,neutral,l,1656,785832,4000
10,female,6830.jpg,a,different,negative,a,1025,791368,4000
10,female,3530.jpg,l,same,negative,l,3266,799792,4000
10,female,7002a.jpg,a,different,neutral,a,1026,804736,4000
10,female,3195.jpg,a,different,negative,a,923,810816,4000
10,female,6570a.jpg,a,different,negative,l,1677,817720,4000
10,female,7055.jpg,l,same,neutral,l,1243,824520,4000
10,female,7020.jpg,a,different,neutral,a,852,830312,4000
10,female,6520.jpg,a,different,negative,a,957,836600,4000
10,female,6834.jpg,l,same,negative,a,1022,842832,4000
10,female,7016.jpg,a,different,neutral,a,1085,849079,4000
10,female,7000a.jpg,a,different,neutral,a,829,855023,4000
10,female,3500.jpg,a,different,negative,a,1230,861607,4000
10,female,5471.jpg,l,same,neutral,a,1142,868719,4000
10,female,3005.jpg,l,same,negative,a,1111,874855,4000
10,female,3019a.jpg,a,different,negative,a,1224,881151,4000
10,female,5725.jpg,a,different,neutral,a,1337,887431,4000
10,female,5711.jpg,a,different,neutral,a,1034,893295,4000
10,female,6230a.jpg,a,different,negative,a,1715,900159,4000
10,female,5750.jpg,l,same,neutral,l,907,905535,4000
10,female,5870a.jpg,a,different,neutral,a,1557,912351,4000
10,female,3400a.jpg,a,different,negative,a,846,917807,4000
10,female,3213.jpg,a,different,negative,a,1127,924271,4000
10,female,7030.jpg,l,same,neutral,a,1495,931823,4000
10,female,6821.jpg,l,same,negative,l,1343,937854,4000
10,female,7012.jpg,a,different,neutral,a,1087,943782,4000
10,female,5390a.jpg,a,different,neutral,a,1025,949886,4000
10,female,6370.jpg,l,same,negative,a,1737,956782,4000
10,female,6415.jpg,a,different,negative,a,1555,962766,4000
10,female,7003.jpg,a,different,neutral,a,1572,968950,4000
10,female,6021a.jpg,a,different,negative,a,1157,974702,4000
10,female,5500a.jpg,a,different,neutral,a,1390,981102,4000
10,female,7041.jpg,l,same,neutral,a,775,986670,4000
10,female,6212.jpg,a,different,negative,a,1024,994102,4000
10,female,7050.jpg,l,same,neutral,l,1193,1000438,4000
10,female,6550a.jpg,a,different,negative,a,1529,1006958,4000
10,female,9810.jpg,a,different,negative,a,1194,1012806,4000
10,female,7161.jpg,a,different,neutral,a,1194,1018989,4000
10,female,9800.jpg,l,same,negative,a,787,1024749,4000
10,female,9300a.jpg,a,different,negative,a,795,1030941,4000
10,female,7017.jpg,l,same,neutral,a,756,1037085,4000
10,female,7217.jpg,l,same,neutral,a,845,1043341,4000
10,female,9425.jpg,a,different,negative,a,1141,1049837,4000
10,female,9412.jpg,a,different,negative,a,991,1055853,4000
10,female,7090a.jpg,a,different,neutral,a,952,1061981,4000
10,female,7140.jpg,l,same,neutral,l,1264,1068477,4000
10,female,9187.jpg,a,different,negative,a,881,1074277,4000
10,female,7040a.jpg,a,different,neutral,a,1042,1080621,4000
10,female,9183.jpg,l,same,negative,l,1459,1088205,4000
10,female,7006a.jpg,a,different,neutral,a,843,1093773,4000
10,female,7004a.jpg,a,different,neutral,a,1292,1100405,4000
10,female,9050.jpg,a,different,negative,a,1108,1106388,4000
10,female,7031.jpg,a,different,neutral,a,1837,1113300,4000
10,female,9250.jpg,l,same,negative,a,1430,1119060,4000
10,female,9163a.jpg,a,different,negative,a,1263,1125076,4000
10,female,5720.jpg,l,same,neutral,l,1223,1131236,4000
10,female,6510.jpg,l,same,negative,l,1416,1137596,4000
10,female,5740a.jpg,a,different,neutral,a,984,1143364,4000
10,female,5800.jpg,a,different,neutral,a,1161,1150724,4000
10,female,6315a.jpg,a,different,negative,a,1489,1157236,4000
10,female,3015.jpg,l,same,negative,l,1642,1163572,4000
10,female,2036a.jpg,a,different,neutral,a,755,1168852,4000
10,female,3016a.jpg,a,different,negative,a,1620,1175884,4000
10,female,5130.jpg,a,different,neutral,l,1422,1181852,4000
10,female,3030.jpg,a,different,negative,l,1606,1188203,4000
10,female,1450.jpg,l,same,neutral,a,958,1193739,4000
10,female,2683.jpg,l,same,negative,a,927,1199891,4000
10,female,1525a.jpg,a,different,negative,l,1640,1207771,4000
10,female,7001.jpg,l,same,neutral,l,1809,1214123,4000
10,female,1333.jpg,a,different,neutral,a,1735,1220883,4000
11,female,7150.jpg,a,different,neutral,a,891,45593,4000
11,female,8230.jpg,l,same,negative,l,1164,52033,4000
11,female,7188.jpg,l,same,neutral,a,684,57753,4000
11,female,3001a.jpg,a,different,negative,l,992,66361,4000
11,female,2393.jpg,a,different,neutral,a,1504,73073,4000
11,female,7042a.jpg,a,different,neutral,a,984,78736,4000
11,female,3053a.jpg,a,different,negative,a,1119,85072,4000
11,female,2981.jpg,l,same,negative,l,824,90960,4000
11,female,2206.jpg,a,different,neutral,a,776,97112,4000
11,female,3059a.jpg,a,different,negative,l,1673,104192,4000
11,female,1910.jpg,a,different,neutral,a,785,109488,4000
11,female,3069.jpg,l,same,negative,l,1002,115888,4000
11,female,2352.jpg,a,different,negative,a,1114,122200,4000
11,female,7080a.jpg,a,different,neutral,a,659,128928,4000
11,female,7100.jpg,a,different,neutral,a,683,135152,4000
11,female,3064.jpg,l,same,negative,l,1602,142255,4000
11,female,3103.jpg,l,same,negative,l,860,147679,4000
11,female,7038a.jpg,a,different,neutral,a,1108,154111,4000
11,female,7056.jpg,a,different,neutral,a,661,159847,4000
11,female,3062a.jpg,a,different,negative,a,949,166335,4000
11,female,7179.jpg,l,same,neutral,l,709,172279,4000
11,female,2730.jpg,a,different,negative,a,925,178695,4000
11,female,3063a.jpg,a,different,negative,a,958,184911,4000
11,female,2850a.jpg,a,different,neutral,a,918,192071,4000
11,female,2038.jpg,l,same,neutral,l,886,198222,4000
11,female,6838.jpg,a,different,negative,a,1686,205206,4000
11,female,7052.jpg,a,different,neutral,a,790,210510,4000
11,female,2320.jpg,l,same,neutral,l,1208,217094,4000
11,female,3071a.jpg,a,different,negative,l,1296,223366,4000
11,female,2580.jpg,l,same,neutral,l,841,229094,4000
11,female,3000.jpg,a,different,negative,a,1698,236134,4000
11,female,3110a.jpg,a,different,negative,a,2353,242990,4000
11,female,7175a.jpg,a,different,neutral,l,970,247790,4000
11,female,9321.jpg,l,same,negative,l,1106,255093,4000
11,female,9433.jpg,l,same,negative,l,1124,261277,4000
11,female,7187.jpg,a,different,neutral,a,1012,267349,4000
11,female,7493a.jpg,a,different,neutral,a,1924,274461,4000
11,female,3010.jpg,a,different,negative,a,1693,280413,4000
11,female,3130.jpg,l,same,negative,l,1230,286117,4000
11,female,7011.jpg,l,same,neutral,a,1735,292805,4000
11,female,3150a.jpg,a,different,negative,a,1511,298781,4000
11,female,2880a.jpg,a,different,neutral,l,1367,304837,4000
11,female,3068.jpg,a,different,negative,a,1566,311236,4000
11,female,3080.jpg,a,different,negative,a,1126,317996,4000
11,female,7034a.jpg,a,different,neutral,a,1462,324516,4000
11,female,7045.jpg,a,different,neutral,a,774,330028,4000
11,female,3168.jpg,l,same,negative,a,1783,337220,4000
11,female,3100a.jpg,a,different,negative,a,927,342564,4000
11,female,7500.jpg,l,same,neutral,l,720,348524,4000
11,female,7205.jpg,a,different,neutral,a,1617,355604,4000
11,female,8485a.jpg,a,different,negative,a,2658,362828,4000
11,female,7700.jpg,l,same,neutral,l,859,367179,4000
11,female,9921.jpg,l,same,negative,l,1308,373795,4000
11,female,7491.jpg,a,different,neutral,a,805,380475,4000
11,female,7550a.jpg,a,different,neutral,a,1405,387259,4000
11,female,9570a.jpg,a,different,negative,a,1077,393131,4000
11,female,9908.jpg,a,different,negative,a,1037,399291,4000
11,female,7160.jpg,l,same,neutral,l,878,405299,4000
11,female,7547.jpg,a,different,neutral,a,982,411603,4000
11,female,9500.jpg,a,different,negative,a,1022,417843,4000
11,female,7705a.jpg,a,different,neutral,a,1030,424034,4000
11,female,9904.jpg,l,same,negative,l,887,430074,4000
11,female,9414a.jpg,a,different,negative,l,991,436362,4000
11,female,9210.jpg,a,different,neutral,a,776,443330,4000
11,female,9360.jpg,l,same,neutral,l,808,449546,4000
11,female,9413.jpg,l,same,negative,l,905,455826,4000
11,female,7950a.jpg,a,different,neutral,a,1370,462474,4000
11,female,9410a.jpg,a,different,negative,a,1923,469210,4000
11,female,9252.jpg,a,different,negative,a,1899,475370,4000
11,female,7026a.jpg,a,different,neutral,a,1154,480825,4000
11,female,7035.jpg,l,same,neutral,a,1051,486889,4000
11,female,3120.jpg,a,different,negative,a,2491,494529,4000
11,female,7039.jpg,a,different,neutral,a,1372,499593,4000
11,female,3212.jpg,l,same,negative,l,1109,506497,4000
11,female,3170a.jpg,a,different,negative,a,2878,514449,4000
11,female,7014.jpg,l,same,neutral,l,1751,519505,4000
11,female,3131.jpg,a,different,negative,a,1879,525833,4000
11,female,7010a.jpg,a,different,neutral,a,1359,531513,4000
11,female,7009a.jpg,a,different,neutral,a,1334,537672,4000
11,female,3261.jpg,l,same,negative,l,991,543512,4000
11,female,7060.jpg,l,same,neutral,a,1648,550336,4000
11,female,6830.jpg,a,different,negative,a,1624,556512,4000
11,female,3530.jpg,l,same,negative,l,2713,563768,4000
11,female,7002a.jpg,a,different,neutral,l,2545,570800,4000
11,female,3195.jpg,a,different,negative,a,1481,575936,4000
11,female,6570a.jpg,a,different,negative,a,1610,582248,4000
11,female,7055.jpg,l,same,neutral,l,1163,587968,4000
11,female,7020.jpg,a,different,neutral,a,1219,594224,4000
11,female,6520.jpg,a,different,negative,a,1243,600431,4000
11,female,6834.jpg,l,same,negative,a,2220,607591,4000
11,female,7016.jpg,a,different,neutral,a,980,612535,4000
11,female,7000a.jpg,a,different,neutral,a,1100,618855,4000
11,female,3500.jpg,a,different,negative,a,1276,625231,4000
11,female,5471.jpg,l,same,neutral,a,2157,633295,4000
11,female,3005.jpg,l,same,negative,l,1134,638439,4000
11,female,3019a.jpg,a,different,negative,a,1278,644783,4000
11,female,5725.jpg,a,different,neutral,a,1269,650974,4000
11,female,5711.jpg,a,different,neutral,a,1494,657382,4000
11,female,6230a.jpg,a,different,negative,l,1542,663614,4000
11,female,5750.jpg,l,same,neutral,l,1007,669262,4000
11,female,5870a.jpg,a,different,neutral,a,1328,675750,4000
11,female,3400a.jpg,a,different,negative,a,1353,681958,4000
11,female,3213.jpg,a,different,negative,a,1618,688406,4000
11,female,7030.jpg,l,same,neutral,l,842,694814,4000
11,female,6821.jpg,l,same,negative,l,1580,701718,4000
11,female,7012.jpg,a,different,neutral,a,1139,707478,4000
11,female,5390a.jpg,a,different,neutral,a,1763,714285,4000
11,female,6370.jpg,l,same,negative,l,1228,719933,4000
11,female,6415.jpg,a,different,negative,a,2316,727221,4000
11,female,7003.jpg,a,different,neutral,a,1028,732133,4000
11,female,6021a.jpg,a,different,negative,a,1132,738437,4000
11,female,5500a.jpg,a,different,neutral,l,1644,745149,4000
11,female,7041.jpg,l,same,neutral,l,1132,750821,4000
11,female,6212.jpg,a,different,negative,a,1108,757997,4000
11,female,7050.jpg,l,same,neutral,a,990,764045,4000
11,female,6550a.jpg,a,different,negative,a,997,770236,4000
11,female,9810.jpg,a,different,negative,a,1022,776444,4000
11,female,7161.jpg,a,different,neutral,a,774,782380,4000
11,female,9800.jpg,l,same,negative,l,736,788508,4000
11,female,9300a.jpg,a,different,negative,a,1376,795332,4000
11,female,7017.jpg,l,same,neutral,l,1040,801196,4000
11,female,7217.jpg,l,same,neutral,a,1434,807756,4000
11,female,9425.jpg,a,different,negative,a,2034,814556,4000
11,female,9412.jpg,a,different,negative,a,1002,819724,4000
11,female,7090a.jpg,a,different,neutral,a,1633,826555,4000
11,female,7140.jpg,l,same,neutral,l,1305,832411,4000
11,female,9187.jpg,a,different,negative,a,1098,838387,4000
11,female,7040a.jpg,a,different,neutral,a,938,844427,4000
11,female,9183.jpg,l,same,negative,a,1947,852603,4000
11,female,7006a.jpg,a,different,neutral,a,931,857787,4000
11,female,7004a.jpg,a,different,neutral,a,851,863907,4000
11,female,9050.jpg,a,different,negative,a,1203,870459,4000
11,female,7031.jpg,a,different,neutral,a,2236,877675,4000
11,female,9250.jpg,l,same,negative,a,1292,882898,4000
11,female,9163a.jpg,a,different,negative,a,2733,890522,4000
11,female,5720.jpg,l,same,neutral,l,1245,895234,4000
11,female,6510.jpg,l,same,negative,l,1309,901482,4000
11,female,5740a.jpg,a,different,neutral,a,966,907322,4000
11,female,5800.jpg,a,different,neutral,a,942,914498,4000
11,female,6315a.jpg,a,different,negative,a,1175,920914,4000
11,female,3015.jpg,l,same,negative,l,1904,927810,4000
11,female,2036a.jpg,a,different,neutral,a,1281,933370,4000
11,female,3016a.jpg,a,different,negative,a,1407,939697,4000
11,female,5130.jpg,a,different,neutral,a,1032,945505,4000
11,female,3030.jpg,a,different,negative,a,1536,952209,4000
11,female,1450.jpg,l,same,neutral,a,817,957657,4000
11,female,2683.jpg,l,same,negative,a,2225,965265,4000
11,female,1525a.jpg,a,different,negative,a,899,971105,4000
11,female,7001.jpg,l,same,neutral,l,987,977377,4000
11,female,1333.jpg,a,different,neutral,a,964,983537,4000
12,female,7150.jpg,a,different,neutral,a,1224,27541,4000
12,female,8230.jpg,l,same,negative,l,1648,34132,4000
12,female,7188.jpg,l,same,neutral,l,1056,39740,4000
12,female,3001a.jpg,a,different,negative,a,2001,47852,4000
12,female,2393.jpg,a,different,neutral,a,1562,53596,4000
12,female,7042a.jpg,a,different,neutral,l,1154,59388,4000
12,female,3053a.jpg,a,different,negative,a,2227,66644,4000
12,female,2981.jpg,l,same,negative,a,2020,72604,4000
12,female,2206.jpg,a,different,neutral,a,757,77524,4000
12,female,3059a.jpg,a,different,negative,a,3086,86020,4000
12,female,1910.jpg,a,different,neutral,a,1544,90644,4000
12,female,3069.jpg,l,same,negative,l,832,96099,4000
12,female,2352.jpg,a,different,negative,l,2408,103859,4000
12,female,7080a.jpg,a,different,neutral,l,881,109499,4000
12,female,7100.jpg,a,different,neutral,a,818,115635,4000
12,female,3064.jpg,l,same,negative,a,2770,123771,4000
12,female,3103.jpg,l,same,negative,a,1707,128891,4000
12,female,7038a.jpg,a,different,neutral,a,1948,135315,4000
12,female,7056.jpg,a,different,neutral,a,764,140315,4000
12,female,3062a.jpg,a,different,negative,a,2900,148634,4000
12,female,7179.jpg,l,same,neutral,l,1109,153026,4000
12,female,2730.jpg,a,different,negative,a,1141,159242,4000
12,female,3063a.jpg,a,different,negative,a,1383,165650,4000
12,female,2850a.jpg,a,different,neutral,l,3911,175362,4000
12,female,2038.jpg,l,same,neutral,l,1032,178650,4000
12,female,6838.jpg,a,different,negative,a,1593,185394,4000
12,female,7052.jpg,a,different,neutral,a,1154,191138,4000
12,female,2320.jpg,l,same,neutral,l,835,196986,4000
12,female,3071a.jpg,a,different,negative,a,1684,204018,4000
12,female,2580.jpg,l,same,neutral,l,723,209241,4000
12,female,3000.jpg,a,different,negative,a,2309,216993,4000
12,female,3110a.jpg,a,different,negative,a,1469,222337,4000
12,female,7175a.jpg,a,different,neutral,l,895,227929,4000
12,female,9321.jpg,l,same,negative,l,1135,235353,4000
12,female,9433.jpg,l,same,negative,a,1968,242369,4000
12,female,7187.jpg,a,different,neutral,a,1745,248329,4000
12,female,7493a.jpg,a,different,neutral,l,1481,254249,4000
12,female,3010.jpg,a,different,negative,a,1978,260929,4000
12,female,3130.jpg,l,same,negative,a,2929,268064,4000
12,female,7011.jpg,l,same,neutral,l,1194,272512,4000
12,female,3150a.jpg,a,different,negative,l,875,278376,4000
12,female,2880a.jpg,a,different,neutral,l,1052,284720,4000
12,female,3068.jpg,a,different,negative,a,1757,291592,4000
12,female,3080.jpg,a,different,negative,a,1319,298320,4000
12,female,7034a.jpg,a,different,neutral,l,2272,305440,4000
12,female,7045.jpg,a,different,neutral,a,1161,310496,4000
12,female,3168.jpg,l,same,negative,l,1786,317304,4000
12,female,3100a.jpg,a,different,negative,a,946,322631,4000
12,female,7500.jpg,l,same,neutral,l,1211,329079,4000
12,female,7205.jpg,a,different,neutral,a,1267,335319,4000
12,female,8485a.jpg,a,different,negative,a,1781,341999,4000
12,female,7700.jpg,l,same,neutral,a,1582,347967,4000
12,female,9921.jpg,l,same,negative,l,951,353519,4000
12,female,7491.jpg,a,different,neutral,a,911,360663,4000
12,female,7550a.jpg,a,different,neutral,l,808,366743,4000
12,female,9570a.jpg,a,different,negative,a,1089,373191,4000
12,female,9908.jpg,a,different,negative,a,1194,379462,4000
12,female,7160.jpg,l,same,neutral,l,938,385390,4000
12,female,7547.jpg,a,different,neutral,a,924,391542,4000
12,female,9500.jpg,a,different,negative,a,1605,398390,4000
12,female,7705a.jpg,a,different,neutral,a,1430,404382,4000
12,female,9904.jpg,l,same,negative,l,1815,410950,4000
12,female,9414a.jpg,a,different,negative,l,1991,417310,4000
12,female,9210.jpg,a,different,neutral,a,1800,424302,4000
12,female,9360.jpg,l,same,neutral,l,1041,429726,4000
12,female,9413.jpg,l,same,negative,l,1106,435958,4000
12,female,7950a.jpg,a,different,neutral,l,3290,444309,4000
12,female,9410a.jpg,a,different,negative,a,1908,449093,4000
12,female,9252.jpg,a,different,negative,a,1085,454437,4000
12,female,7026a.jpg,a,different,neutral,a,1734,461269,4000
12,female,7035.jpg,l,same,neutral,a,1092,467461,4000
12,female,3120.jpg,a,different,negative,a,2333,474869,4000
12,female,7039.jpg,a,different,neutral,a,982,479701,4000
12,female,3212.jpg,l,same,negative,l,1663,487565,4000
12,female,3170a.jpg,a,different,negative,a,1502,493588,4000
12,female,7014.jpg,l,same,neutral,l,999,499268,4000
12,female,3131.jpg,a,different,negative,a,2000,506452,4000
12,female,7010a.jpg,a,different,neutral,a,1168,511804,4000
12,female,7009a.jpg,a,different,neutral,l,945,517764,4000
12,female,3261.jpg,l,same,negative,l,730,523732,4000
12,female,7060.jpg,l,same,neutral,l,738,529924,4000
12,female,6830.jpg,a,different,negative,a,876,536228,4000
12,female,3530.jpg,l,same,negative,l,1149,542668,4000
12,female,7002a.jpg,a,different,neutral,a,3532,552235,4000
12,female,3195.jpg,a,different,negative,a,1925,556811,4000
12,female,6570a.jpg,a,different,negative,l,3719,564755,4000
12,female,7055.jpg,l,same,neutral,l,913,568099,4000
12,female,7020.jpg,a,different,neutral,l,730,574099,4000
12,female,6520.jpg,a,different,negative,a,1506,581059,4000
12,female,6834.jpg,l,same,negative,l,2364,588083,4000
12,female,7016.jpg,a,different,neutral,a,1124,593027,4000
12,female,7000a.jpg,a,different,neutral,a,909,598995,4000
12,female,3500.jpg,a,different,negative,a,2910,607163,4000
12,female,5471.jpg,l,same,neutral,,0,0,4000
12,female,3005.jpg,l,same,negative,l,922,618458,4000
12,female,3019a.jpg,a,different,negative,a,2203,625906,4000
12,female,5725.jpg,a,different,neutral,a,1172,631058,4000
12,female,5711.jpg,a,different,neutral,a,853,636906,4000
12,female,6230a.jpg,a,different,negative,a,2670,644906,4000
12,female,5750.jpg,l,same,neutral,l,887,649290,4000
12,female,5870a.jpg,a,different,neutral,a,1032,655602,4000
12,female,3400a.jpg,a,different,negative,a,2658,663394,4000
12,female,3213.jpg,a,different,negative,a,1418,668321,4000
12,female,7030.jpg,l,same,neutral,l,1395,675481,4000
12,female,6821.jpg,l,same,negative,l,1347,681617,4000
12,female,7012.jpg,a,different,neutral,a,1004,687457,4000
12,female,5390a.jpg,a,different,neutral,a,1101,693721,4000
12,female,6370.jpg,l,same,negative,l,2374,701177,4000
12,female,6415.jpg,a,different,negative,a,1167,706137,4000
12,female,7003.jpg,a,different,neutral,a,952,712105,4000
12,female,6021a.jpg,a,different,negative,a,1017,718337,4000
12,female,5500a.jpg,a,different,neutral,a,2657,726160,4000
12,female,7041.jpg,l,same,neutral,a,1578,731248,4000
12,female,6212.jpg,a,different,negative,a,1555,738408,4000
12,female,7050.jpg,l,same,neutral,l,1484,744504,4000
12,female,6550a.jpg,a,different,negative,a,3189,752392,4000
12,female,9810.jpg,a,different,negative,a,726,756096,4000
12,female,7161.jpg,a,different,neutral,a,775,762312,4000
12,female,9800.jpg,l,same,negative,l,761,768464,4000
12,female,9300a.jpg,a,different,negative,a,2522,776392,4000
12,female,7017.jpg,l,same,neutral,a,3130,783167,4000
12,female,7217.jpg,l,same,neutral,l,867,787087,4000
12,female,9425.jpg,a,different,negative,a,1835,794239,4000
12,female,9412.jpg,a,different,negative,a,884,799471,4000
12,female,7090a.jpg,a,different,neutral,a,1245,806015,4000
12,female,7140.jpg,l,same,neutral,l,717,811671,4000
12,female,9187.jpg,a,different,negative,a,1838,818975,4000
12,female,7040a.jpg,a,different,neutral,a,1807,825111,4000
12,female,9183.jpg,l,same,negative,l,1041,831511,4000
12,female,7006a.jpg,a,different,neutral,a,889,837543,4000
12,female,7004a.jpg,a,different,neutral,a,1018,843838,4000
12,female,9050.jpg,a,different,negative,a,1570,850574,4000
12,female,7031.jpg,a,different,neutral,a,731,855902,4000
12,female,9250.jpg,l,same,negative,l,1636,862990,4000
12,female,9163a.jpg,a,different,negative,l,1685,869206,4000
12,female,5720.jpg,l,same,neutral,l,637,874358,4000
12,female,6510.jpg,l,same,negative,l,1807,881694,4000
12,female,5740a.jpg,a,different,neutral,a,1232,887286,4000
12,female,5800.jpg,a,different,neutral,a,1497,894734,4000
12,female,6315a.jpg,a,different,negative,a,1320,900741,4000
12,female,3015.jpg,l,same,negative,a,1074,906661,4000
12,female,2036a.jpg,a,different,neutral,l,1003,912757,4000
12,female,3016a.jpg,a,different,negative,l,2500,920421,4000
12,female,5130.jpg,a,different,neutral,a,1029,925133,4000
12,female,3030.jpg,a,different,negative,a,1293,931581,4000
12,female,1450.jpg,l,same,neutral,a,726,937197,4000
12,female,2683.jpg,l,same,negative,a,1343,943981,4000
12,female,1525a.jpg,a,different,negative,a,889,950693,4000
12,female,7001.jpg,l,same,neutral,l,641,956612,4000
12,female,1333.jpg,a,different,neutral,a,1562,963700,4000
13,female,7150.jpg,a,different,neutral,a,923,35612,4000
13,female,8230.jpg,l,same,negative,l,1580,42436,4000
13,female,7188.jpg,l,same,neutral,l,1132,48188,4000
13,female,3001a.jpg,a,different,negative,l,1092,55332,4000
13,female,2393.jpg,a,different,neutral,a,1060,61499,4000
13,female,7042a.jpg,a,different,neutral,l,964,67587,4000
13,female,3053a.jpg,a,different,negative,l,1677,74483,4000
13,female,2981.jpg,l,same,negative,l,1166,80139,4000
13,female,2206.jpg,a,different,neutral,a,1054,86227,4000
13,female,3059a.jpg,a,different,negative,l,911,92251,4000
13,female,1910.jpg,a,different,neutral,a,944,98467,4000
13,female,3069.jpg,l,same,negative,l,1089,104795,4000
13,female,2352.jpg,a,different,negative,a,1546,111419,4000
13,female,7080a.jpg,a,different,neutral,l,1226,118282,4000
13,female,7100.jpg,a,different,neutral,a,1082,124322,4000
13,female,3064.jpg,l,same,negative,l,1163,130586,4000
13,female,3103.jpg,l,same,negative,l,836,136442,4000
13,female,7038a.jpg,a,different,neutral,l,869,142642,4000
13,female,7056.jpg,a,different,neutral,a,1142,149082,4000
13,female,3062a.jpg,a,different,negative,l,887,154994,4000
13,female,7179.jpg,l,same,neutral,l,1417,161690,4000
13,female,2730.jpg,a,different,negative,a,1297,167754,4000
13,female,3063a.jpg,a,different,negative,a,1338,173978,4000
13,female,2850a.jpg,a,different,neutral,a,802,180609,4000
13,female,2038.jpg,l,same,neutral,l,1083,187073,4000
13,female,6838.jpg,a,different,negative,a,1492,193665,4000
13,female,7052.jpg,a,different,neutral,a,901,199241,4000
13,female,2320.jpg,l,same,neutral,l,1094,205617,4000
13,female,3071a.jpg,a,different,negative,l,926,211633,4000
13,female,2580.jpg,l,same,neutral,l,1064,217937,4000
13,female,3000.jpg,a,different,negative,l,1200,224257,4000
13,female,3110a.jpg,a,different,negative,a,1105,230345,4000
13,female,7175a.jpg,a,different,neutral,l,1345,236752,4000
13,female,9321.jpg,l,same,negative,l,1618,244208,4000
13,female,9433.jpg,l,same,negative,l,1098,249872,4000
13,female,7187.jpg,a,different,neutral,a,1003,255960,4000
13,female,7493a.jpg,a,different,neutral,a,1196,262320,4000
13,female,3010.jpg,a,different,negative,l,1093,268400,4000
13,female,3130.jpg,l,same,negative,l,1374,274848,4000
13,female,7011.jpg,l,same,neutral,l,1080,280720,4000
13,female,3150a.jpg,a,different,negative,a,1624,287448,4000
13,female,2880a.jpg,a,different,neutral,a,1017,293007,4000
13,female,3068.jpg,a,different,negative,a,1329,299503,4000
13,female,3080.jpg,a,different,negative,a,1826,307183,4000
13,female,7034a.jpg,a,different,neutral,l,1371,312895,4000
13,female,7045.jpg,a,different,neutral,a,1348,319039,4000
13,female,3168.jpg,l,same,negative,l,884,324775,4000
13,female,3100a.jpg,a,different,negative,a,869,330943,4000
13,female,7500.jpg,l,same,neutral,l,1054,337295,4000
13,female,7205.jpg,a,different,neutral,a,984,343391,4000
13,female,8485a.jpg,a,different,negative,a,1208,349782,4000
13,female,7700.jpg,l,same,neutral,l,906,355630,4000
13,female,9921.jpg,l,same,negative,l,955,361846,4000
13,female,7491.jpg,a,different,neutral,a,917,368974,4000
13,female,7550a.jpg,a,different,neutral,a,1157,375398,4000
13,female,9570a.jpg,a,different,negative,a,1502,381910,4000
13,female,9908.jpg,a,different,negative,a,1023,387614,4000
13,female,7160.jpg,l,same,neutral,l,840,393598,4000
13,female,7547.jpg,a,different,neutral,a,1146,400070,4000
13,female,9500.jpg,a,different,negative,a,1105,406213,4000
13,female,7705a.jpg,a,different,neutral,a,731,412005,4000
13,female,9904.jpg,l,same,negative,l,835,418293,4000
13,female,9414a.jpg,a,different,negative,a,1252,424893,4000
13,female,9210.jpg,a,different,neutral,a,1533,432341,4000
13,female,9360.jpg,l,same,neutral,l,1294,438285,4000
13,female,9413.jpg,l,same,negative,l,991,444165,4000
13,female,7950a.jpg,a,different,neutral,a,1432,450773,4000
13,female,9410a.jpg,a,different,negative,l,1064,456589,4000
13,female,9252.jpg,a,different,negative,a,1264,462972,4000
13,female,7026a.jpg,a,different,neutral,a,1505,469396,4000
13,female,7035.jpg,l,same,neutral,a,1050,475108,4000
13,female,3120.jpg,a,different,negative,l,747,480988,4000
13,female,7039.jpg,a,different,neutral,a,1011,487436,4000
13,female,3212.jpg,l,same,negative,l,1324,494932,4000
13,female,3170a.jpg,a,different,negative,l,925,500700,4000
13,female,7014.jpg,l,same,neutral,l,951,506892,4000
13,female,3131.jpg,a,different,negative,l,1207,513332,4000
13,female,7010a.jpg,a,different,neutral,l,1345,519636,4000
13,female,7009a.jpg,a,different,neutral,l,816,525291,4000
13,female,3261.jpg,l,same,negative,a,1529,532187,4000
13,female,7060.jpg,l,same,neutral,l,1023,538115,4000
13,female,6830.jpg,a,different,negative,a,1265,544523,4000
13,female,3530.jpg,l,same,negative,l,945,550387,4000
13,female,7002a.jpg,a,different,neutral,l,1010,557635,4000
13,female,3195.jpg,a,different,negative,a,1051,563859,4000
13,female,6570a.jpg,a,different,negative,a,1596,570571,4000
13,female,7055.jpg,l,same,neutral,a,1221,576363,4000
13,female,7020.jpg,a,different,neutral,a,1166,582474,4000
13,female,6520.jpg,a,different,negative,a,1222,588714,4000
13,female,6834.jpg,l,same,negative,a,2120,595778,4000
13,female,7016.jpg,a,different,neutral,a,1385,601210,4000
13,female,7000a.jpg,a,different,neutral,a,1465,607490,4000
13,female,3500.jpg,a,different,negative,a,1769,613978,4000
13,female,5471.jpg,l,same,neutral,l,851,620226,4000
13,female,3005.jpg,l,same,negative,l,1027,626586,4000
13,female,3019a.jpg,a,different,negative,a,1229,632954,4000
13,female,5725.jpg,a,different,neutral,a,1380,639289,4000
13,female,5711.jpg,a,different,neutral,a,821,644913,4000
13,female,6230a.jpg,a,different,negative,l,1326,651585,4000
13,female,5750.jpg,l,same,neutral,l,719,657161,4000
13,female,5870a.jpg,a,different,neutral,a,1400,664009,4000
13,female,3400a.jpg,a,different,negative,a,1482,670257,4000
13,female,3213.jpg,a,different,negative,a,1426,676385,4000
13,female,7030.jpg,l,same,neutral,l,1979,684105,4000
13,female,6821.jpg,l,same,negative,l,972,689281,4000
13,female,7012.jpg,a,different,neutral,a,1084,695560,4000
13,female,5390a.jpg,a,different,neutral,a,861,701520,4000
13,female,6370.jpg,l,same,negative,l,1094,707936,4000
13,female,6415.jpg,a,different,negative,a,1510,714536,4000
13,female,7003.jpg,a,different,neutral,a,1224,720416,4000
13,female,6021a.jpg,a,different,negative,a,1641,727000,4000
13,female,5500a.jpg,a,different,neutral,a,1154,732680,4000
13,female,7041.jpg,l,same,neutral,a,1212,738904,4000
13,female,6212.jpg,a,different,negative,a,1300,746176,4000
13,female,7050.jpg,l,same,neutral,a,988,752047,4000
13,female,6550a.jpg,a,different,negative,l,1957,759183,4000
13,female,9810.jpg,a,different,negative,a,958,764351,4000
13,female,7161.jpg,a,different,neutral,a,768,770327,4000
13,female,9800.jpg,l,same,negative,l,1376,777119,4000
13,female,9300a.jpg,a,different,negative,a,1498,783407,4000
13,female,7017.jpg,l,same,neutral,l,1426,789519,4000
13,female,7217.jpg,l,same,neutral,a,755,795031,4000
13,female,9425.jpg,a,different,negative,a,1060,801503,4000
13,female,9412.jpg,a,different,negative,a,1452,808078,4000
13,female,7090a.jpg,a,different,neutral,l,1389,814182,4000
13,female,7140.jpg,l,same,neutral,l,1478,820454,4000
13,female,9187.jpg,a,different,negative,a,1590,826750,4000
13,female,7040a.jpg,a,different,neutral,a,1424,832750,4000
13,female,9183.jpg,l,same,negative,l,1177,839670,4000
13,female,7006a.jpg,a,different,neutral,a,1218,845894,4000
13,female,7004a.jpg,a,different,neutral,a,1434,852294,4000
13,female,9050.jpg,a,different,negative,a,1627,858670,4000
13,female,7031.jpg,a,different,neutral,l,1763,864989,4000
13,female,9250.jpg,l,same,negative,a,1683,871093,4000
13,female,9163a.jpg,a,different,negative,l,1372,876965,4000
13,female,5720.jpg,l,same,neutral,l,1085,882861,4000
13,female,6510.jpg,l,same,negative,a,1214,889157,4000
13,female,5740a.jpg,a,different,neutral,a,967,895093,4000
13,female,5800.jpg,a,different,neutral,a,807,902117,4000
13,female,6315a.jpg,a,different,negative,a,1368,908845,4000
13,female,3015.jpg,l,same,negative,l,1265,914925,4000
13,female,2036a.jpg,a,different,neutral,a,1297,921140,4000
13,female,3016a.jpg,a,different,negative,l,1177,927204,4000
13,female,5130.jpg,a,different,neutral,a,834,933044,4000
13,female,3030.jpg,a,different,negative,l,1203,939596,4000
13,female,1450.jpg,l,same,neutral,a,892,945452,4000
13,female,2683.jpg,l,same,negative,l,1253,951996,4000
13,female,1525a.jpg,a,different,negative,a,1518,959428,4000
13,female,7001.jpg,l,same,neutral,l,1007,965100,4000
13,female,1333.jpg,a,different,neutral,a,880,971140,4000
14,female,7150.jpg,a,different,neutral,,0,0,4000
14,female,8230.jpg,l,same,negative,l,1301,212381,4000
14,female,7188.jpg,l,same,neutral,l,1549,218845,4000
14,female,3001a.jpg,a,different,negative,l,1333,225813,4000
14,female,2393.jpg,a,different,neutral,a,1350,232013,4000
14,female,7042a.jpg,a,different,neutral,l,1141,237988,4000
14,female,3053a.jpg,a,different,negative,a,1566,244596,4000
14,female,2981.jpg,l,same,negative,l,1038,250268,4000
14,female,2206.jpg,a,different,neutral,a,911,256324,4000
14,female,3059a.jpg,a,different,negative,l,1032,262612,4000
14,female,1910.jpg,a,different,neutral,a,816,268596,4000
14,female,3069.jpg,l,same,negative,l,1273,275236,4000
14,female,2352.jpg,a,different,negative,a,818,280948,4000
14,female,7080a.jpg,a,different,neutral,l,994,288324,4000
14,female,7100.jpg,a,different,neutral,a,810,294307,4000
14,female,3064.jpg,l,same,negative,a,1547,301227,4000
14,female,3103.jpg,l,same,negative,l,1324,307187,4000
14,female,7038a.jpg,a,different,neutral,a,948,312995,4000
14,female,7056.jpg,a,different,neutral,a,828,319075,4000
14,female,3062a.jpg,a,different,negative,a,941,325371,4000
14,female,7179.jpg,l,same,neutral,l,1253,331867,4000
14,female,2730.jpg,a,different,negative,a,1151,337931,4000
14,female,3063a.jpg,a,different,negative,a,1031,343995,4000
14,female,2850a.jpg,a,different,neutral,a,1511,351658,4000
14,female,2038.jpg,l,same,neutral,l,1184,357514,4000
14,female,6838.jpg,a,different,negative,a,848,363362,4000
14,female,7052.jpg,a,different,neutral,a,1025,369722,4000
14,female,2320.jpg,l,same,neutral,l,1394,376274,4000
14,female,3071a.jpg,a,different,negative,a,1330,382394,4000
14,female,2580.jpg,l,same,neutral,l,1555,388802,4000
14,female,3000.jpg,a,different,negative,a,1291,394722,4000
14,female,3110a.jpg,a,different,negative,a,1045,400642,4000
14,female,7175a.jpg,a,different,neutral,a,1709,407490,4000
14,female,9321.jpg,l,same,negative,l,1181,414145,4000
14,female,9433.jpg,l,same,negative,a,1446,420593,4000
14,female,7187.jpg,a,different,neutral,a,710,426041,4000
14,female,7493a.jpg,a,different,neutral,a,1430,432961,4000
14,female,3010.jpg,a,different,negative,l,1423,439137,4000
14,female,3130.jpg,l,same,negative,l,1048,444945,4000
14,female,7011.jpg,l,same,neutral,l,1376,451457,4000
14,female,3150a.jpg,a,different,negative,a,985,457249,4000
14,female,2880a.jpg,a,different,neutral,a,1250,463697,4000
14,female,3068.jpg,a,different,negative,a,1177,469808,4000
14,female,3080.jpg,a,different,negative,a,1258,477072,4000
14,female,7034a.jpg,a,different,neutral,a,794,482792,4000
14,female,7045.jpg,a,different,neutral,a,955,489136,4000
14,female,3168.jpg,l,same,negative,l,1436,495800,4000
14,female,3100a.jpg,a,different,negative,a,1061,501592,4000
14,female,7500.jpg,l,same,neutral,a,998,507712,4000
14,female,7205.jpg,a,different,neutral,a,958,513856,4000
14,female,8485a.jpg,a,different,negative,a,1152,520216,4000
14,female,7700.jpg,l,same,neutral,a,705,525919,4000
14,female,9921.jpg,l,same,negative,a,946,532327,4000
14,female,7491.jpg,a,different,neutral,a,858,539439,4000
14,female,7550a.jpg,a,different,neutral,a,1203,545951,4000
14,female,9570a.jpg,a,different,negative,a,1236,552151,4000
14,female,9908.jpg,a,different,negative,a,789,557887,4000
14,female,7160.jpg,l,same,neutral,a,974,564239,4000
14,female,7547.jpg,a,different,neutral,a,624,570055,4000
14,female,9500.jpg,a,different,negative,a,1056,576671,4000
14,female,7705a.jpg,a,different,neutral,l,1417,583198,4000
14,female,9904.jpg,l,same,negative,a,1505,589470,4000
14,female,9414a.jpg,a,different,negative,l,979,595110,4000
14,female,9210.jpg,a,different,neutral,a,915,602230,4000
14,female,9360.jpg,l,same,neutral,l,1539,609054,4000
14,female,9413.jpg,l,same,negative,l,797,614478,4000
14,female,7950a.jpg,a,different,neutral,a,1781,621662,4000
14,female,9410a.jpg,a,different,negative,a,1405,627470,4000
14,female,9252.jpg,a,different,negative,a,838,633070,4000
14,female,7026a.jpg,a,different,neutral,a,726,639141,4000
14,female,7035.jpg,l,same,neutral,a,1975,646573,4000
14,female,3120.jpg,a,different,negative,l,1088,651853,4000
14,female,7039.jpg,a,different,neutral,a,1041,657973,4000
14,female,3212.jpg,l,same,negative,l,1610,665725,4000
14,female,3170a.jpg,a,different,negative,a,987,671285,4000
14,female,7014.jpg,l,same,neutral,l,1532,677997,4000
14,female,3131.jpg,a,different,negative,a,1397,684045,4000
14,female,7010a.jpg,a,different,neutral,a,781,689613,4000
14,female,7009a.jpg,a,different,neutral,a,1221,696236,4000
14,female,3261.jpg,l,same,negative,a,1414,702596,4000
14,female,7060.jpg,l,same,neutral,a,1734,709116,4000
14,female,6830.jpg,a,different,negative,a,1231,714796,4000
14,female,3530.jpg,l,same,negative,a,2079,721828,4000
14,female,7002a.jpg,a,different,neutral,a,888,727820,4000
14,female,3195.jpg,a,different,negative,a,1921,735020,4000
14,female,6570a.jpg,a,different,negative,a,947,740196,4000
14,female,7055.jpg,l,same,neutral,l,1220,746652,4000
14,female,7020.jpg,a,different,neutral,a,1796,753395,4000
14,female,6520.jpg,a,different,negative,a,1477,759259,4000
14,female,6834.jpg,l,same,negative,a,837,764803,4000
14,female,7016.jpg,a,different,neutral,a,1158,771307,4000
14,female,7000a.jpg,a,different,neutral,l,2511,778843,4000
14,female,3500.jpg,a,different,negative,a,2247,784763,4000
14,female,5471.jpg,l,same,neutral,a,1672,791371,4000
14,female,3005.jpg,l,same,negative,a,1425,797291,4000
14,female,3019a.jpg,a,different,negative,a,1515,803547,4000
14,female,5725.jpg,a,different,neutral,a,827,809043,4000
14,female,5711.jpg,a,different,neutral,a,1034,815450,4000
14,female,6230a.jpg,a,different,negative,l,971,821570,4000
14,female,5750.jpg,l,same,neutral,l,1284,828050,4000
14,female,5870a.jpg,a,different,neutral,a,1005,833954,4000
14,female,3400a.jpg,a,different,negative,a,735,839834,4000
14,female,3213.jpg,a,different,negative,a,920,846186,4000
14,female,7030.jpg,l,same,neutral,l,961,853410,4000
14,female,6821.jpg,l,same,negative,l,1041,859674,4000
14,female,7012.jpg,a,different,neutral,a,970,865786,4000
14,female,5390a.jpg,a,different,neutral,a,1066,872049,4000
14,female,6370.jpg,l,same,negative,l,867,878033,4000
14,female,6415.jpg,a,different,negative,a,3196,886545,4000
14,female,7003.jpg,a,different,neutral,a,700,890233,4000
14,female,6021a.jpg,a,different,negative,a,1236,896969,4000
14,female,5500a.jpg,a,different,neutral,l,1110,903009,4000
14,female,7041.jpg,l,same,neutral,a,1126,909209,4000
14,female,6212.jpg,a,different,negative,a,1136,916385,4000
14,female,7050.jpg,l,same,neutral,l,1568,922984,4000
14,female,6550a.jpg,a,different,negative,l,1480,929096,4000
14,female,9810.jpg,a,different,negative,a,1840,935640,4000
14,female,7161.jpg,a,different,neutral,a,914,940880,4000
14,female,9800.jpg,l,same,negative,l,1146,947296,4000
14,female,9300a.jpg,a,different,negative,a,1603,953936,4000
14,female,7017.jpg,l,same,neutral,a,867,959400,4000
14,female,7217.jpg,l,same,neutral,a,1788,966504,4000
14,female,9425.jpg,a,different,negative,a,1901,972784,4000
14,female,9412.jpg,a,different,negative,a,1502,978568,4000
14,female,7090a.jpg,a,different,neutral,a,1141,984391,4000
14,female,7140.jpg,l,same,neutral,l,1070,990503,4000
14,female,9187.jpg,a,different,negative,a,1031,996631,4000
14,female,7040a.jpg,a,different,neutral,a,1368,1003151,4000
14,female,9183.jpg,l,same,negative,l,1184,1010151,4000
14,female,7006a.jpg,a,different,neutral,a,824,1015991,4000
14,female,7004a.jpg,a,different,neutral,a,1082,1022415,4000
14,female,9050.jpg,a,different,negative,a,2114,1029631,4000
14,female,7031.jpg,a,different,neutral,a,715,1034415,4000
14,female,9250.jpg,l,same,negative,l,1106,1041006,4000
14,female,9163a.jpg,a,different,negative,a,1107,1047174,4000
14,female,5720.jpg,l,same,neutral,l,1387,1053654,4000
14,female,6510.jpg,l,same,negative,a,869,1059302,4000
14,female,5740a.jpg,a,different,neutral,a,694,1065294,4000
14,female,5800.jpg,a,different,neutral,a,734,1072518,4000
14,female,6315a.jpg,a,different,negative,a,2190,1080174,4000
14,female,3015.jpg,l,same,negative,a,3031,1087198,4000
14,female,2036a.jpg,a,different,neutral,a,2208,1092558,4000
14,female,3016a.jpg,a,different,negative,a,1023,1097557,4000
14,female,5130.jpg,a,different,neutral,a,776,1103493,4000
14,female,3030.jpg,a,different,negative,a,1185,1110069,4000
14,female,1450.jpg,l,same,neutral,a,722,1115789,4000
14,female,2683.jpg,l,same,negative,a,913,1122213,4000
14,female,1525a.jpg,a,different,negative,a,1680,1130197,4000
14,female,7001.jpg,l,same,neutral,a,1608,1136309,4000
14,female,1333.jpg,a,different,neutral,a,1009,1141877,4000
15,male,7150.jpg,a,different,neutral,a,1316,288833,4000
15,male,8230.jpg,l,same,negative,l,1396,295097,4000
15,male,7188.jpg,l,same,neutral,l,1340,301241,4000
15,male,3001a.jpg,a,different,negative,a,1932,309000,4000
15,male,2393.jpg,a,different,neutral,a,2101,315352,4000
15,male,7042a.jpg,a,different,neutral,a,1750,321184,4000
15,male,3053a.jpg,a,different,negative,a,1118,326736,4000
15,male,2981.jpg,l,same,negative,l,998,332816,4000
15,male,2206.jpg,a,different,neutral,a,2743,340744,4000
15,male,3059a.jpg,a,different,negative,a,1720,345888,4000
15,male,1910.jpg,a,different,neutral,a,1146,351480,4000
15,male,3069.jpg,l,same,negative,l,1146,357664,4000
15,male,2352.jpg,a,different,negative,a,1347,364048,4000
15,male,7080a.jpg,a,different,neutral,a,1410,371295,4000
15,male,7100.jpg,a,different,neutral,a,979,377047,4000
15,male,3064.jpg,l,same,negative,l,2251,384503,4000
15,male,3103.jpg,l,same,negative,l,1100,389535,4000
15,male,7038a.jpg,a,different,neutral,l,933,395551,4000
15,male,7056.jpg,a,different,neutral,a,941,401759,4000
15,male,3062a.jpg,a,different,negative,a,1166,408151,4000
15,male,7179.jpg,l,same,neutral,l,1278,414463,4000
15,male,2730.jpg,a,different,negative,a,1246,420631,4000
15,male,3063a.jpg,a,different,negative,a,1318,426886,4000
15,male,2850a.jpg,a,different,neutral,a,1071,433822,4000
15,male,2038.jpg,l,same,neutral,,0,0,4000
15,male,6838.jpg,a,different,negative,a,979,446014,4000
15,male,7052.jpg,a,different,neutral,a,1035,452270,4000
15,male,2320.jpg,l,same,neutral,l,1148,458566,4000
15,male,3071a.jpg,a,different,negative,a,3132,466734,4000
15,male,2580.jpg,l,same,neutral,l,1013,470798,4000
15,male,3000.jpg,a,different,negative,a,1366,477334,4000
15,male,3110a.jpg,a,different,negative,a,2077,484229,4000
15,male,7175a.jpg,a,different,neutral,a,1118,489453,4000
15,male,9321.jpg,l,same,negative,l,959,496477,4000
15,male,9433.jpg,l,same,negative,l,1927,503629,4000
15,male,7187.jpg,a,different,neutral,a,1760,509645,4000
15,male,7493a.jpg,a,different,neutral,a,2441,516509,4000
15,male,3010.jpg,a,different,negative,a,1496,521765,4000
15,male,3130.jpg,l,same,negative,l,1217,527669,4000
15,male,7011.jpg,l,same,neutral,a,1770,534405,4000
15,male,3150a.jpg,a,different,negative,a,1834,540636,4000
15,male,2880a.jpg,a,different,neutral,a,1890,546876,4000
15,male,3068.jpg,a,different,negative,a,1475,552644,4000
15,male,3080.jpg,a,different,negative,a,1412,559764,4000
15,male,7034a.jpg,a,different,neutral,a,917,565452,4000
15,male,7045.jpg,a,different,neutral,a,1109,571844,4000
15,male,3168.jpg,l,same,negative,l,1333,578268,4000
15,male,3100a.jpg,a,different,negative,l,2789,585908,4000
15,male,7500.jpg,l,same,neutral,l,1111,590396,4000
15,male,7205.jpg,a,different,neutral,a,2062,597531,4000
15,male,8485a.jpg,a,different,negative,a,1543,603179,4000
15,male,7700.jpg,l,same,neutral,l,1793,609595,4000
15,male,9921.jpg,l,same,negative,a,2314,616283,4000
15,male,7491.jpg,a,different,neutral,a,1418,622587,4000
15,male,7550a.jpg,a,different,neutral,a,1154,628523,4000
15,male,9570a.jpg,a,different,negative,a,1523,635059,4000
15,male,9908.jpg,a,different,negative,a,836,640555,4000
15,male,7160.jpg,l,same,neutral,l,1437,647339,4000
15,male,7547.jpg,a,different,neutral,a,1741,653810,4000
15,male,9500.jpg,a,different,negative,a,2941,661194,4000
15,male,7705a.jpg,a,different,neutral,a,1406,665842,4000
15,male,9904.jpg,l,same,negative,l,1175,671778,4000
15,male,9414a.jpg,a,different,negative,a,1832,678618,4000
15,male,9210.jpg,a,different,neutral,l,2272,686258,4000
15,male,9360.jpg,l,same,neutral,l,1417,691570,4000
15,male,9413.jpg,l,same,negative,l,858,697194,4000
15,male,7950a.jpg,a,different,neutral,a,1235,703754,4000
15,male,9410a.jpg,a,different,negative,a,1962,710665,4000
15,male,9252.jpg,a,different,negative,a,1363,716249,4000
15,male,7026a.jpg,a,different,neutral,a,931,722017,4000
15,male,7035.jpg,l,same,neutral,a,1036,728305,4000
15,male,3120.jpg,a,different,negative,l,988,734441,4000
15,male,7039.jpg,a,different,neutral,a,1085,740721,4000
15,male,3212.jpg,l,same,negative,a,1341,748161,4000
15,male,3170a.jpg,a,different,negative,l,1127,754113,4000
15,male,7014.jpg,l,same,neutral,l,1024,760177,4000
15,male,3131.jpg,a,different,negative,l,2984,768320,4000
15,male,7010a.jpg,a,different,neutral,a,1568,773088,4000
15,male,7009a.jpg,a,different,neutral,a,929,778632,4000
15,male,3261.jpg,l,same,negative,l,1017,784920,4000
15,male,7060.jpg,l,same,neutral,l,1098,791184,4000
15,male,6830.jpg,a,different,negative,a,3338,799608,4000
15,male,3530.jpg,l,same,negative,l,1052,803488,4000
15,male,7002a.jpg,a,different,neutral,a,989,810592,4000
15,male,3195.jpg,a,different,negative,a,1486,817272,4000
15,male,6570a.jpg,a,different,negative,l,1318,823255,4000
15,male,7055.jpg,l,same,neutral,l,952,829055,4000
15,male,7020.jpg,a,different,neutral,a,1184,835471,4000
15,male,6520.jpg,a,different,negative,a,1097,841567,4000
15,male,6834.jpg,l,same,negative,l,1322,847975,4000
15,male,7016.jpg,a,different,neutral,a,1435,854255,4000
15,male,7000a.jpg,a,different,neutral,a,1331,860351,4000
15,male,3500.jpg,a,different,negative,a,1323,866543,4000
15,male,5471.jpg,l,same,neutral,l,964,873367,4000
15,male,3005.jpg,l,same,negative,l,1020,879607,4000
15,male,3019a.jpg,a,different,negative,a,1501,886254,4000
15,male,5725.jpg,a,different,neutral,a,1197,892150,4000
15,male,5711.jpg,a,different,neutral,a,860,898014,4000
15,male,6230a.jpg,a,different,negative,a,886,904206,4000
15,male,5750.jpg,l,same,neutral,l,1150,910654,4000
15,male,5870a.jpg,a,different,neutral,a,1567,917254,4000
15,male,3400a.jpg,a,different,negative,a,1064,922918,4000
15,male,3213.jpg,a,different,negative,a,1624,929678,4000
15,male,7030.jpg,l,same,neutral,l,1393,936630,4000
15,male,6821.jpg,l,same,negative,l,897,942301,4000
15,male,7012.jpg,a,different,neutral,a,945,948549,4000
15,male,5390a.jpg,a,different,neutral,a,1362,955149,4000
15,male,6370.jpg,l,same,negative,l,859,960829,4000
15,male,6415.jpg,a,different,negative,a,2100,968237,4000
15,male,7003.jpg,a,different,neutral,a,2100,974437,4000
15,male,6021a.jpg,a,different,negative,a,1452,979973,4000
15,male,5500a.jpg,a,different,neutral,a,1382,986069,4000
15,male,7041.jpg,l,same,neutral,a,1374,992245,4000
15,male,6212.jpg,a,different,negative,a,2734,1000788,4000
15,male,7050.jpg,l,same,neutral,a,2831,1007068,4000
15,male,6550a.jpg,a,different,negative,a,2143,1012564,4000
15,male,9810.jpg,a,different,negative,a,920,1017524,4000
15,male,7161.jpg,a,different,neutral,a,1481,1024268,4000
15,male,9800.jpg,l,same,negative,l,665,1029636,4000
15,male,9300a.jpg,a,different,negative,l,1001,1036172,4000
15,male,7017.jpg,l,same,neutral,l,1322,1042676,4000
15,male,7217.jpg,l,same,neutral,a,1075,1048596,4000
15,male,9425.jpg,a,different,negative,a,3363,1057067,4000
15,male,9412.jpg,a,different,negative,a,843,1060747,4000
15,male,7090a.jpg,a,different,neutral,a,756,1066827,4000
15,male,7140.jpg,l,same,neutral,l,773,1073027,4000
15,male,9187.jpg,a,different,negative,a,1293,1079731,4000
15,male,7040a.jpg,a,different,neutral,a,1519,1086123,4000
15,male,9183.jpg,l,same,negative,l,1015,1092803,4000
15,male,7006a.jpg,a,different,neutral,a,960,1098931,4000
15,male,7004a.jpg,a,different,neutral,a,1065,1105219,4000
15,male,9050.jpg,a,different,negative,l,2856,1113210,4000
15,male,7031.jpg,a,different,neutral,a,1224,1117762,4000
15,male,9250.jpg,l,same,negative,l,1648,1124386,4000
15,male,9163a.jpg,a,different,negative,a,1713,1130634,4000
15,male,5720.jpg,l,same,neutral,l,1385,1136506,4000
15,male,6510.jpg,l,same,negative,a,3257,1144562,4000
15,male,5740a.jpg,a,different,neutral,a,1282,1148770,4000
15,male,5800.jpg,a,different,neutral,l,938,1155626,4000
15,male,6315a.jpg,a,different,negative,a,2795,1163666,4000
15,male,3015.jpg,l,same,negative,l,1282,1168337,4000
15,male,2036a.jpg,a,different,neutral,l,931,1174169,4000
15,male,3016a.jpg,a,different,negative,a,2547,1181985,4000
15,male,5130.jpg,a,different,neutral,a,1035,1186673,4000
15,male,3030.jpg,a,different,negative,a,1228,1193033,4000
15,male,1450.jpg,l,same,neutral,l,885,1198873,4000
15,male,2683.jpg,l,same,negative,l,1270,1205425,4000
15,male,1525a.jpg,a,different,negative,a,911,1212233,4000
15,male,7001.jpg,l,same,neutral,l,879,1218401,4000
15,male,1333.jpg,a,different,neutral,a,1096,1224801,4000
16,female,7150.jpg,a,different,neutral,,0,0,4000
16,female,8230.jpg,l,same,negative,a,1477,37225,4000
16,female,7188.jpg,l,same,neutral,a,2981,44929,4000
16,female,3001a.jpg,a,different,negative,a,817,51065,4000
16,female,2393.jpg,a,different,neutral,l,3825,60273,4000
16,female,7042a.jpg,a,different,neutral,l,1657,64289,4000
16,female,3053a.jpg,a,different,negative,a,2178,70993,4000
16,female,2981.jpg,l,same,negative,l,2083,77065,4000
16,female,2206.jpg,a,different,neutral,a,2435,83617,4000
16,female,3059a.jpg,a,different,negative,l,1283,88665,4000
16,female,1910.jpg,a,different,neutral,a,1043,94625,4000
16,female,3069.jpg,l,same,negative,a,2892,102641,4000
16,female,2352.jpg,a,different,negative,a,1173,107105,4000
16,female,7080a.jpg,a,different,neutral,a,1181,114297,4000
16,female,7100.jpg,a,different,neutral,a,797,120113,4000
16,female,3064.jpg,l,same,negative,l,1862,127361,4000
16,female,3103.jpg,l,same,negative,a,871,132553,4000
16,female,7038a.jpg,a,different,neutral,a,1135,139001,4000
16,female,7056.jpg,a,different,neutral,a,735,144801,4000
16,female,3062a.jpg,a,different,negative,l,1318,151584,4000
16,female,7179.jpg,l,same,neutral,a,759,157192,4000
16,female,2730.jpg,a,different,negative,a,1568,164184,4000
16,female,3063a.jpg,a,different,negative,a,1816,170632,4000
16,female,2850a.jpg,a,different,neutral,a,2304,178320,4000
16,female,2038.jpg,l,same,neutral,l,929,183112,4000
16,female,6838.jpg,a,different,negative,a,1361,189744,4000
16,female,7052.jpg,a,different,neutral,l,1121,195688,4000
16,female,2320.jpg,l,same,neutral,l,1107,201840,4000
16,female,3071a.jpg,a,different,negative,l,1363,208280,4000
16,female,2580.jpg,l,same,neutral,a,932,214032,4000
16,female,3000.jpg,a,different,negative,l,1108,220408,4000
16,female,3110a.jpg,a,different,negative,l,988,226472,4000
16,female,7175a.jpg,a,different,neutral,a,773,232440,4000
16,female,9321.jpg,l,same,negative,l,1238,240072,4000
16,female,9433.jpg,l,same,negative,a,1471,246472,4000
16,female,7187.jpg,a,different,neutral,a,1119,252320,4000
16,female,7493a.jpg,a,different,neutral,l,1184,258568,4000
16,female,3010.jpg,a,different,negative,a,1335,264919,4000
16,female,3130.jpg,l,same,negative,l,1072,270823,4000
16,female,7011.jpg,l,same,neutral,l,1473,277391,4000
16,female,3150a.jpg,a,different,negative,a,1018,283119,4000
16,female,2880a.jpg,a,different,neutral,l,994,289295,4000
16,female,3068.jpg,a,different,negative,a,1482,295967,4000
16,female,3080.jpg,a,different,negative,l,1010,302695,4000
16,female,7034a.jpg,a,different,neutral,l,1411,309279,4000
16,female,7045.jpg,a,different,neutral,a,971,315023,4000
16,female,3168.jpg,l,same,negative,l,1316,321551,4000
16,female,3100a.jpg,a,different,negative,a,1244,327679,4000
16,female,7500.jpg,l,same,neutral,l,1869,334471,4000
16,female,7205.jpg,a,different,neutral,a,1214,339999,4000
16,female,8485a.jpg,a,different,negative,a,1742,346711,4000
16,female,7700.jpg,l,same,neutral,l,1064,352183,4000
16,female,9921.jpg,l,same,negative,l,1969,359271,4000
16,female,7491.jpg,a,different,neutral,a,841,365327,4000
16,female,7550a.jpg,a,different,neutral,a,1210,371879,4000
16,female,9570a.jpg,a,different,negative,a,1050,377903,4000
16,female,9908.jpg,a,different,negative,a,1081,384134,4000
16,female,7160.jpg,l,same,neutral,l,1538,390774,4000
16,female,7547.jpg,a,different,neutral,a,1083,396502,4000
16,female,9500.jpg,a,different,negative,a,2002,403622,4000
16,female,7705a.jpg,a,different,neutral,l,1259,409062,4000
16,female,9904.jpg,l,same,negative,l,1252,415222,4000
16,female,9414a.jpg,a,different,negative,l,1261,421414,4000
16,female,9210.jpg,a,different,neutral,a,869,428222,4000
16,female,9360.jpg,l,same,neutral,l,894,434414,4000
16,female,9413.jpg,l,same,negative,l,975,440662,4000
16,female,7950a.jpg,a,different,neutral,l,760,446630,4000
16,female,9410a.jpg,a,different,negative,a,1360,453414,4000
16,female,9252.jpg,a,different,negative,a,904,459158,4000
16,female,7026a.jpg,a,different,neutral,a,1641,466078,4000
16,female,7035.jpg,l,same,neutral,l,738,471342,4000
16,female,3120.jpg,a,different,negative,l,1107,477894,4000
16,female,7039.jpg,a,different,neutral,a,1211,484182,4000
16,female,3212.jpg,l,same,negative,l,876,491030,4000
16,female,3170a.jpg,a,different,negative,l,779,497117,4000
16,female,7014.jpg,l,same,neutral,l,756,503277,4000
16,female,3131.jpg,a,different,negative,l,1773,510477,4000
16,female,7010a.jpg,a,different,neutral,l,845,515733,4000
16,female,7009a.jpg,a,different,neutral,a,1101,522189,4000
16,female,3261.jpg,l,same,negative,l,902,528173,4000
16,female,7060.jpg,l,same,neutral,l,983,534421,4000
16,female,6830.jpg,a,different,negative,a,815,540453,4000
16,female,3530.jpg,l,same,negative,l,1223,547045,4000
16,female,7002a.jpg,a,different,neutral,l,912,553917,4000
16,female,3195.jpg,a,different,negative,a,880,560085,4000
16,female,6570a.jpg,a,different,negative,a,808,566197,4000
16,female,7055.jpg,l,same,neutral,l,722,572261,4000
16,female,7020.jpg,a,different,neutral,l,819,578541,4000
16,female,6520.jpg,a,different,negative,a,1252,585157,4000
16,female,6834.jpg,l,same,negative,l,1133,591205,4000
16,female,7016.jpg,a,different,neutral,a,749,597021,4000
16,female,7000a.jpg,a,different,neutral,a,1477,603949,4000
16,female,3500.jpg,a,different,negative,a,1444,610100,4000
16,female,5471.jpg,l,same,neutral,a,1541,617364,4000
16,female,3005.jpg,l,same,negative,l,895,622884,4000
16,female,3019a.jpg,a,different,negative,a,1055,629244,4000
16,female,5725.jpg,a,different,neutral,a,1223,635596,4000
16,female,5711.jpg,a,different,neutral,a,936,641492,4000
16,female,6230a.jpg,a,different,negative,l,1480,648220,4000
16,female,5750.jpg,l,same,neutral,l,801,653724,4000
16,female,5870a.jpg,a,different,neutral,a,769,659876,4000
16,female,3400a.jpg,a,different,negative,l,811,666084,4000
16,female,3213.jpg,a,different,negative,a,1035,672492,4000
16,female,7030.jpg,l,same,neutral,l,1132,679772,4000
16,female,6821.jpg,l,same,negative,a,1860,686684,4000
16,female,7012.jpg,a,different,neutral,a,965,691972,4000
16,female,5390a.jpg,a,different,neutral,a,1933,699140,4000
16,female,6370.jpg,l,same,negative,a,1381,704772,4000
16,female,6415.jpg,a,different,negative,a,1341,710932,4000
16,female,7003.jpg,a,different,neutral,a,950,716724,4000
16,female,6021a.jpg,a,different,negative,a,1726,723700,4000
16,female,5500a.jpg,a,different,neutral,l,965,729123,4000
16,female,7041.jpg,l,same,neutral,l,678,735019,4000
16,female,6212.jpg,a,different,negative,l,1726,743267,4000
16,female,7050.jpg,l,same,neutral,l,2303,750011,4000
16,female,6550a.jpg,a,different,negative,l,1032,754923,4000
16,female,9810.jpg,a,different,negative,a,912,761003,4000
16,female,7161.jpg,a,different,neutral,a,760,767035,4000
16,female,9800.jpg,l,same,negative,l,1057,773499,4000
16,female,9300a.jpg,a,different,negative,l,810,779435,4000
16,female,7017.jpg,l,same,neutral,l,2059,786851,4000
16,female,7217.jpg,l,same,neutral,a,805,791763,4000
16,female,9425.jpg,a,different,negative,a,1549,798691,4000
16,female,9412.jpg,a,different,negative,a,893,804235,4000
16,female,7090a.jpg,a,different,neutral,a,2142,811667,4000
16,female,7140.jpg,l,same,neutral,l,1575,817267,4000
16,female,9187.jpg,a,different,negative,a,1567,823443,4000
16,female,7040a.jpg,a,different,neutral,l,1695,829771,4000
16,female,9183.jpg,l,same,negative,l,2424,837683,4000
16,female,7006a.jpg,a,different,neutral,a,767,842210,4000
16,female,7004a.jpg,a,different,neutral,a,1431,849074,4000
16,female,9050.jpg,a,different,negative,a,1079,854922,4000
16,female,7031.jpg,a,different,neutral,a,1311,861354,4000
16,female,9250.jpg,l,same,negative,l,1840,868050,4000
16,female,9163a.jpg,a,different,negative,l,993,873386,4000
16,female,5720.jpg,l,same,neutral,l,954,879530,4000
16,female,6510.jpg,l,same,negative,l,1235,885978,4000
16,female,5740a.jpg,a,different,neutral,a,795,891722,4000
16,female,5800.jpg,a,different,neutral,a,1444,899554,4000
16,female,6315a.jpg,a,different,negative,a,1005,905298,4000
16,female,3015.jpg,l,same,negative,l,1094,911554,4000
16,female,2036a.jpg,a,different,neutral,a,1086,917730,4000
16,female,3016a.jpg,a,different,negative,a,895,923722,4000
16,female,5130.jpg,a,different,neutral,a,1096,930106,4000
16,female,3030.jpg,a,different,negative,l,1968,937162,4000
16,female,1450.jpg,l,same,neutral,a,937,942314,4000
16,female,2683.jpg,l,same,negative,l,978,948522,4000
16,female,1525a.jpg,a,different,negative,a,946,955673,4000
16,female,7001.jpg,l,same,neutral,l,730,961641,4000
16,female,1333.jpg,a,different,neutral,a,1450,968561,4000
17,female,7150.jpg,a,different,neutral,a,1151,48160,4000
17,female,8230.jpg,l,same,negative,l,1015,54208,4000
17,female,7188.jpg,l,same,neutral,l,935,60328,4000
17,female,3001a.jpg,a,different,negative,l,1118,67711,4000
17,female,2393.jpg,a,different,neutral,a,1335,74111,4000
17,female,7042a.jpg,a,different,neutral,l,872,79815,4000
17,female,3053a.jpg,a,different,negative,a,1001,86111,4000
17,female,2981.jpg,l,same,negative,l,889,92199,4000
17,female,2206.jpg,a,different,neutral,a,802,98279,4000
17,female,3059a.jpg,a,different,negative,l,1563,105207,4000
17,female,1910.jpg,a,different,neutral,a,876,110703,4000
17,female,3069.jpg,l,same,negative,l,1093,117087,4000
17,female,2352.jpg,a,different,negative,a,1263,123423,4000
17,female,7080a.jpg,a,different,neutral,a,1216,130543,4000
17,female,7100.jpg,a,different,neutral,a,840,136351,4000
17,female,3064.jpg,l,same,negative,l,1010,142687,4000
17,female,3103.jpg,l,same,negative,a,1123,148967,4000
17,female,7038a.jpg,a,different,neutral,l,1076,155087,4000
17,female,7056.jpg,a,different,neutral,a,949,161127,4000
17,female,3062a.jpg,a,different,negative,a,1166,167527,4000
17,female,7179.jpg,l,same,neutral,l,934,173479,4000
17,female,2730.jpg,a,different,negative,a,1263,179991,4000
17,female,3063a.jpg,a,different,negative,a,1215,186126,4000
17,female,2850a.jpg,a,different,neutral,a,791,192886,4000
17,female,2038.jpg,l,same,neutral,l,1016,199278,4000
17,female,6838.jpg,a,different,negative,a,1585,206030,4000
17,female,7052.jpg,a,different,neutral,a,866,211478,4000
17,female,2320.jpg,l,same,neutral,l,995,217790,4000
17,female,3071a.jpg,a,different,negative,a,1443,224422,4000
17,female,2580.jpg,l,same,neutral,l,981,230126,4000
17,female,3000.jpg,a,different,negative,a,1781,237110,4000
17,female,3110a.jpg,a,different,negative,a,1462,242974,4000
17,female,7175a.jpg,a,different,neutral,l,1222,248918,4000
17,female,9321.jpg,l,same,negative,l,864,255726,4000
17,female,9433.jpg,l,same,negative,l,1408,262454,4000
17,female,7187.jpg,a,different,neutral,a,1145,268358,4000
17,female,7493a.jpg,a,different,neutral,l,1106,274502,4000
17,female,3010.jpg,a,different,negative,a,1379,280942,4000
17,female,3130.jpg,l,same,negative,a,1756,287502,4000
17,female,7011.jpg,l,same,neutral,l,1413,293326,4000
17,female,3150a.jpg,a,different,negative,a,1669,299765,4000
17,female,2880a.jpg,a,different,neutral,a,1606,305869,4000
17,female,3068.jpg,a,different,negative,a,1959,312389,4000
17,female,3080.jpg,a,different,negative,a,1776,319373,4000
17,female,7034a.jpg,a,different,neutral,a,1842,325605,4000
17,female,7045.jpg,a,different,neutral,a,923,330853,4000
17,female,3168.jpg,l,same,negative,l,1276,337389,4000
17,female,3100a.jpg,a,different,negative,a,1453,343733,4000
17,female,7500.jpg,l,same,neutral,l,758,349205,4000
17,female,7205.jpg,a,different,neutral,a,1399,356013,4000
17,female,8485a.jpg,a,different,negative,a,1560,362341,4000
17,female,7700.jpg,l,same,neutral,l,1082,368013,4000
17,female,9921.jpg,l,same,negative,a,1403,374517,4000
17,female,7491.jpg,a,different,neutral,a,948,381229,4000
17,female,7550a.jpg,a,different,neutral,a,1173,387637,4000
17,female,9570a.jpg,a,different,negative,a,1470,394101,4000
17,female,9908.jpg,a,different,negative,a,1231,400029,4000
17,female,7160.jpg,l,same,neutral,l,1520,406501,4000
17,female,7547.jpg,a,different,neutral,a,1376,412524,4000
17,female,9500.jpg,a,different,negative,a,1593,418908,4000
17,female,7705a.jpg,a,different,neutral,a,1507,424988,4000
17,female,9904.jpg,l,same,negative,l,964,430612,4000
17,female,9414a.jpg,a,different,negative,a,1588,437420,4000
17,female,9210.jpg,a,different,neutral,a,1622,444620,4000
17,female,9360.jpg,l,same,neutral,l,2087,451252,4000
17,female,9413.jpg,l,same,negative,l,2000,457332,4000
17,female,7950a.jpg,a,different,neutral,a,1033,462548,4000
17,female,9410a.jpg,a,different,negative,a,1961,469660,4000
17,female,9252.jpg,a,different,negative,a,1602,475484,4000
17,female,7026a.jpg,a,different,neutral,a,1515,481564,4000
17,female,7035.jpg,l,same,neutral,l,1444,487676,4000
17,female,3120.jpg,a,different,negative,a,2260,494676,4000
17,female,7039.jpg,a,different,neutral,a,1326,499908,4000
17,female,3212.jpg,l,same,negative,a,1407,507156,4000
17,female,3170a.jpg,a,different,negative,a,2304,514220,4000
17,female,7014.jpg,l,same,neutral,l,1401,519484,4000
17,female,3131.jpg,a,different,negative,a,2345,526611,4000
17,female,7010a.jpg,a,different,neutral,a,1314,531747,4000
17,female,7009a.jpg,a,different,neutral,a,1403,538019,4000
17,female,3261.jpg,l,same,negative,l,1468,544251,4000
17,female,7060.jpg,l,same,neutral,l,1285,550235,4000
17,female,6830.jpg,a,different,negative,a,1718,556835,4000
17,female,3530.jpg,l,same,negative,l,2119,563419,4000
17,female,7002a.jpg,a,different,neutral,a,1136,569603,4000
17,female,3195.jpg,a,different,negative,a,1465,576099,4000
17,female,6570a.jpg,a,different,negative,a,1187,581987,4000
17,female,7055.jpg,l,same,neutral,l,1461,588411,4000
17,female,7020.jpg,a,different,neutral,a,1598,594715,4000
17,female,6520.jpg,a,different,negative,a,1726,601027,4000
17,female,6834.jpg,l,same,negative,l,1664,607131,4000
17,female,7016.jpg,a,different,neutral,a,1136,612787,4000
17,female,7000a.jpg,a,different,neutral,a,1336,619187,4000
17,female,3500.jpg,a,different,negative,a,2225,626243,4000
17,female,5471.jpg,l,same,neutral,a,1915,633099,4000
17,female,3005.jpg,l,same,negative,l,1523,638891,4000
17,female,3019a.jpg,a,different,negative,a,1939,645490,4000
17,female,5725.jpg,a,different,neutral,a,1228,650946,4000
17,female,5711.jpg,a,different,neutral,a,1613,657514,4000
17,female,6230a.jpg,a,different,negative,a,2109,664194,4000
17,female,5750.jpg,l,same,neutral,l,1350,669602,4000
17,female,5870a.jpg,a,different,neutral,a,1567,676002,4000
17,female,3400a.jpg,a,different,negative,a,1352,681954,4000
17,female,3213.jpg,a,different,negative,a,1889,688674,4000
17,female,7030.jpg,l,same,neutral,l,2258,696210,4000
17,female,6821.jpg,l,same,negative,a,1395,701514,4000
17,female,7012.jpg,a,different,neutral,a,1093,707378,4000
17,female,5390a.jpg,a,different,neutral,a,990,713442,4000
17,female,6370.jpg,l,same,negative,l,1663,720282,4000
17,female,6415.jpg,a,different,negative,a,1544,726346,4000
17,female,7003.jpg,a,different,neutral,a,1225,732194,4000
17,female,6021a.jpg,a,different,negative,a,1490,738626,4000
17,female,5500a.jpg,a,different,neutral,a,1899,745202,4000
17,female,7041.jpg,l,same,neutral,l,1371,750857,4000
17,female,6212.jpg,a,different,negative,a,1804,758457,4000
17,female,7050.jpg,l,same,neutral,l,1693,764513,4000
17,female,6550a.jpg,a,different,negative,a,2007,770993,4000
17,female,9810.jpg,a,different,negative,a,1312,776465,4000
17,female,7161.jpg,a,different,neutral,a,1393,782713,4000
17,female,9800.jpg,l,same,negative,l,2042,789529,4000
17,female,9300a.jpg,a,different,negative,a,1140,794793,4000
17,female,7017.jpg,l,same,neutral,a,2309,802129,4000
17,female,7217.jpg,l,same,neutral,l,2030,808017,4000
17,female,9425.jpg,a,different,negative,a,2151,814321,4000
17,female,9412.jpg,a,different,negative,a,1751,820105,4000
17,female,7090a.jpg,a,different,neutral,l,1976,826513,4000
17,female,7140.jpg,l,same,neutral,l,1785,832489,4000
17,female,9187.jpg,a,different,negative,a,1242,838113,4000
17,female,7040a.jpg,a,different,neutral,a,1924,844961,4000
17,female,9183.jpg,l,same,negative,l,2013,852217,4000
17,female,7006a.jpg,a,different,neutral,a,1237,857625,4000
17,female,7004a.jpg,a,different,neutral,a,1527,864081,4000
17,female,9050.jpg,a,different,negative,a,1568,870289,4000
17,female,7031.jpg,a,different,neutral,a,1224,876112,4000
17,female,9250.jpg,l,same,negative,l,1409,882464,4000
17,female,9163a.jpg,a,different,negative,l,1387,888608,4000
17,female,5720.jpg,l,same,neutral,l,1315,894720,4000
17,female,6510.jpg,l,same,negative,l,1516,901104,4000
17,female,5740a.jpg,a,different,neutral,a,1268,907040,4000
17,female,5800.jpg,a,different,neutral,a,1253,914208,4000
17,female,6315a.jpg,a,different,negative,a,1422,920544,4000
17,female,3015.jpg,l,same,negative,a,1695,926984,4000
17,female,2036a.jpg,a,different,neutral,a,1416,932888,4000
17,female,3016a.jpg,a,different,negative,a,1865,939520,4000
17,female,5130.jpg,a,different,neutral,a,1561,945400,4000
17,female,3030.jpg,a,different,negative,a,1730,951752,4000
17,female,1450.jpg,l,same,neutral,l,1426,957632,4000
17,female,2683.jpg,l,same,negative,a,2139,964512,4000
17,female,1525a.jpg,a,different,negative,l,1677,971216,4000
17,female,7001.jpg,l,same,neutral,l,1510,977216,4000
17,female,1333.jpg,a,different,neutral,a,1670,983543,4000
18,female,7150.jpg,a,different,neutral,l,1124,36986,4000
18,female,8230.jpg,l,same,negative,l,1501,43546,4000
18,female,7188.jpg,l,same,neutral,a,2085,50330,4000
18,female,3001a.jpg,a,different,negative,a,1533,56946,4000
18,female,2393.jpg,a,different,neutral,a,1759,63354,4000
18,female,7042a.jpg,a,different,neutral,l,1144,68906,4000
18,female,3053a.jpg,a,different,negative,l,2321,76250,4000
18,female,2981.jpg,l,same,negative,l,881,80977,4000
18,female,2206.jpg,a,different,neutral,a,1874,88153,4000
18,female,3059a.jpg,a,different,negative,l,1171,93617,4000
18,female,1910.jpg,a,different,neutral,l,2932,101545,4000
18,female,3069.jpg,l,same,negative,l,1685,106481,4000
18,female,2352.jpg,a,different,negative,a,1902,112881,4000
18,female,7080a.jpg,a,different,neutral,a,1895,120041,4000
18,female,7100.jpg,a,different,neutral,a,1591,125921,4000
18,female,3064.jpg,l,same,negative,l,1937,132433,4000
18,female,3103.jpg,l,same,negative,l,1482,138145,4000
18,female,7038a.jpg,a,different,neutral,l,1714,144561,4000
18,female,7056.jpg,a,different,neutral,a,1371,150401,4000
18,female,3062a.jpg,a,different,negative,l,1356,156553,4000
18,female,7179.jpg,l,same,neutral,l,1381,162745,4000
18,female,2730.jpg,a,different,negative,a,1742,169289,4000
18,female,3063a.jpg,a,different,negative,a,2399,176113,4000
18,female,2850a.jpg,a,different,neutral,a,1888,182785,4000
18,female,2038.jpg,l,same,neutral,l,2200,189264,4000
18,female,6838.jpg,a,different,negative,l,2017,195264,4000
18,female,7052.jpg,a,different,neutral,a,1217,200648,4000
18,female,2320.jpg,l,same,neutral,a,1858,207472,4000
18,female,3071a.jpg,a,different,negative,l,1283,213064,4000
18,female,2580.jpg,l,same,neutral,l,1668,219632,4000
18,female,3000.jpg,a,different,negative,l,1804,225952,4000
18,female,3110a.jpg,a,different,negative,l,2262,232576,4000
18,female,7175a.jpg,a,different,neutral,l,1518,238016,4000
18,female,9321.jpg,l,same,negative,l,1063,244744,4000
18,female,9433.jpg,l,same,negative,l,1295,251160,4000
18,female,7187.jpg,a,different,neutral,a,1064,257112,4000
18,female,7493a.jpg,a,different,neutral,l,1368,263600,4000
18,female,3010.jpg,a,different,negative,l,1065,269480,4000
18,female,3130.jpg,l,same,negative,l,1634,276232,4000
18,female,7011.jpg,l,same,neutral,a,1282,282064,4000
18,female,3150a.jpg,a,different,negative,a,2043,289008,4000
18,female,2880a.jpg,a,different,neutral,a,2036,295168,4000
18,female,3068.jpg,a,different,negative,l,1549,300848,4000
18,female,3080.jpg,a,different,negative,a,2094,308576,4000
18,female,7034a.jpg,a,different,neutral,a,2558,315207,4000
18,female,7045.jpg,a,different,neutral,a,2279,321095,4000
18,female,3168.jpg,l,same,negative,l,807,325823,4000
18,female,3100a.jpg,a,different,negative,a,1497,332679,4000
18,female,7500.jpg,l,same,neutral,l,1913,339279,4000
18,female,7205.jpg,a,different,neutral,a,2066,345615,4000
18,female,8485a.jpg,a,different,negative,l,1891,351607,4000
18,female,7700.jpg,l,same,neutral,a,1557,357423,4000
18,female,9921.jpg,l,same,negative,l,1174,363207,4000
18,female,7491.jpg,a,different,neutral,a,1087,370303,4000
18,female,7550a.jpg,a,different,neutral,a,2392,377775,4000
18,female,9570a.jpg,a,different,negative,l,2377,383927,4000
18,female,9908.jpg,a,different,negative,a,2594,390327,4000
18,female,7160.jpg,l,same,neutral,l,2107,396007,4000
18,female,7547.jpg,a,different,neutral,a,2204,402271,4000
18,female,9500.jpg,a,different,negative,a,2133,408367,4000
18,female,7705a.jpg,a,different,neutral,l,1686,414103,4000
18,female,9904.jpg,l,same,negative,l,1998,420582,4000
18,female,9414a.jpg,a,different,negative,a,1903,426670,4000
18,female,9210.jpg,a,different,neutral,a,2096,434030,4000
18,female,9360.jpg,l,same,neutral,l,1625,439742,4000
18,female,9413.jpg,l,same,negative,l,1354,445638,4000
18,female,7950a.jpg,a,different,neutral,a,1715,452166,4000
18,female,9410a.jpg,a,different,negative,a,2228,458862,4000
18,female,9252.jpg,a,different,negative,a,2773,465574,4000
18,female,7026a.jpg,a,different,neutral,a,1694,470662,4000
18,female,7035.jpg,l,same,neutral,a,2943,478094,4000
18,female,3120.jpg,a,different,negative,l,1696,483014,4000
18,female,7039.jpg,a,different,neutral,a,1473,488974,4000
18,female,3212.jpg,l,same,negative,l,1418,496086,4000
18,female,3170a.jpg,a,different,negative,a,2539,503390,4000
18,female,7014.jpg,l,same,neutral,l,1012,508030,4000
18,female,3131.jpg,a,different,negative,l,1357,514542,4000
18,female,7010a.jpg,a,different,neutral,a,1958,521310,4000
18,female,7009a.jpg,a,different,neutral,l,2624,528142,4000
18,female,3261.jpg,l,same,negative,l,1257,532942,4000
18,female,7060.jpg,l,same,neutral,l,1409,539261,4000
18,female,6830.jpg,a,different,negative,a,2058,546093,4000
18,female,3530.jpg,l,same,negative,l,1683,551885,4000
18,female,7002a.jpg,a,different,neutral,a,1835,559221,4000
18,female,3195.jpg,a,different,negative,a,1884,565453,4000
18,female,6570a.jpg,a,different,negative,a,2901,572637,4000
18,female,7055.jpg,l,same,neutral,l,1222,577125,4000
18,female,7020.jpg,a,different,neutral,l,1816,583885,4000
18,female,6520.jpg,a,different,negative,a,2760,591013,4000
18,female,6834.jpg,l,same,negative,l,1546,595965,4000
18,female,7016.jpg,a,different,neutral,a,1426,602029,4000
18,female,7000a.jpg,a,different,neutral,l,1211,607997,4000
18,female,3500.jpg,a,different,negative,a,2484,615437,4000
18,female,5471.jpg,l,same,neutral,l,1845,621981,4000
18,female,3005.jpg,l,same,negative,l,1541,627861,4000
18,female,3019a.jpg,a,different,negative,l,2606,635093,4000
18,female,5725.jpg,a,different,neutral,a,1960,640613,4000
18,female,5711.jpg,a,different,neutral,a,2177,646997,4000
18,female,6230a.jpg,a,different,negative,a,1122,652109,4000
18,female,5750.jpg,l,same,neutral,l,1546,658716,4000
18,female,5870a.jpg,a,different,neutral,l,1378,664732,4000
18,female,3400a.jpg,a,different,negative,l,1156,670676,4000
18,female,3213.jpg,a,different,negative,a,1773,677460,4000
18,female,7030.jpg,l,same,neutral,l,2222,685076,4000
18,female,6821.jpg,l,same,negative,l,1303,690324,4000
18,female,7012.jpg,a,different,neutral,a,1113,696300,4000
18,female,5390a.jpg,a,different,neutral,a,1177,702548,4000
18,female,6370.jpg,l,same,negative,l,1090,708644,4000
18,female,6415.jpg,a,different,negative,a,2139,715860,4000
18,female,7003.jpg,a,different,neutral,a,1772,721660,4000
18,female,6021a.jpg,a,different,negative,a,2957,729012,4000
18,female,5500a.jpg,a,different,neutral,l,943,733164,4000
18,female,7041.jpg,l,same,neutral,l,2520,740908,4000
18,female,6212.jpg,a,different,negative,a,2017,747572,4000
18,female,7050.jpg,l,same,neutral,l,1914,753652,4000
18,female,6550a.jpg,a,different,negative,a,2282,760204,4000
18,female,9810.jpg,a,different,negative,a,1746,765851,4000
18,female,7161.jpg,a,different,neutral,a,1363,771651,4000
18,female,9800.jpg,l,same,negative,l,3059,779531,4000
18,female,9300a.jpg,a,different,negative,a,836,783475,4000
18,female,7017.jpg,l,same,neutral,l,934,789739,4000
18,female,7217.jpg,l,same,neutral,l,1830,796819,4000
18,female,9425.jpg,a,different,negative,a,2599,803771,4000
18,female,9412.jpg,a,different,negative,a,2247,809603,4000
18,female,7090a.jpg,a,different,neutral,a,1488,815027,4000
18,female,7140.jpg,l,same,neutral,l,1249,820955,4000
18,female,9187.jpg,a,different,negative,a,1330,827219,4000
18,female,7040a.jpg,a,different,neutral,l,2306,834379,4000
18,female,9183.jpg,l,same,negative,l,1620,840859,4000
18,female,7006a.jpg,a,different,neutral,a,1205,846611,4000
18,female,7004a.jpg,a,different,neutral,a,2734,854307,4000
18,female,9050.jpg,a,different,negative,a,3439,861195,4000
18,female,7031.jpg,a,different,neutral,a,968,864891,4000
18,female,9250.jpg,l,same,negative,a,1536,871643,4000
18,female,9163a.jpg,a,different,negative,a,2482,878755,4000
18,female,5720.jpg,l,same,neutral,l,1425,883898,4000
18,female,6510.jpg,l,same,negative,a,2930,891570,4000
18,female,5740a.jpg,a,different,neutral,a,1650,896474,4000
18,female,5800.jpg,a,different,neutral,l,1587,903594,4000
18,female,6315a.jpg,a,different,negative,l,1956,910130,4000
18,female,3015.jpg,l,same,negative,a,2518,916858,4000
18,female,2036a.jpg,a,different,neutral,a,1302,921826,4000
18,female,3016a.jpg,a,different,negative,a,2487,929194,4000
18,female,5130.jpg,a,different,neutral,a,1928,934802,4000
18,female,3030.jpg,a,different,negative,l,2097,941138,4000
18,female,1450.jpg,l,same,neutral,l,978,946202,4000
18,female,2683.jpg,l,same,negative,l,2035,953426,4000
18,female,1525a.jpg,a,different,negative,a,1852,960426,4000
18,female,7001.jpg,l,same,neutral,l,1157,965898,4000
18,female,1333.jpg,a,different,neutral,a,1214,972122,4000
19,female,7150.jpg,a,different,neutral,a,1442,53757,4000
19,female,8230.jpg,l,same,negative,a,2435,60916,4000
19,female,7188.jpg,l,same,neutral,l,1811,66476,4000
19,female,3001a.jpg,a,different,negative,a,2612,74460,4000
19,female,2393.jpg,a,different,neutral,a,1852,79884,4000
19,female,7042a.jpg,a,different,neutral,l,1093,85308,4000
19,female,3053a.jpg,a,different,negative,a,1550,91948,4000
19,female,2981.jpg,l,same,negative,l,1117,97716,4000
19,female,2206.jpg,a,different,neutral,a,1542,104324,4000
19,female,3059a.jpg,a,different,negative,a,2055,111004,4000
19,female,1910.jpg,a,different,neutral,a,1024,116156,4000
19,female,3069.jpg,l,same,negative,l,1256,122572,4000
19,female,2352.jpg,a,different,negative,a,1586,129068,4000
19,female,7080a.jpg,a,different,neutral,a,2155,136804,4000
19,female,7100.jpg,a,different,neutral,a,804,141636,4000
19,female,3064.jpg,l,same,negative,l,1317,148316,4000
19,female,3103.jpg,l,same,negative,l,1013,154196,4000
19,female,7038a.jpg,a,different,neutral,a,1310,160676,4000
19,female,7056.jpg,a,different,neutral,a,1623,167172,4000
19,female,3062a.jpg,a,different,negative,l,1208,172924,4000
19,female,7179.jpg,l,same,neutral,l,967,178867,4000
19,female,2730.jpg,a,different,negative,a,1960,186043,4000
19,female,3063a.jpg,a,different,negative,a,1441,191691,4000
19,female,2850a.jpg,a,different,neutral,a,1139,198556,4000
19,female,2038.jpg,l,same,neutral,l,1210,204827,4000
19,female,6838.jpg,a,different,negative,a,1091,210891,4000
19,female,7052.jpg,a,different,neutral,a,804,216787,4000
19,female,2320.jpg,l,same,neutral,l,1317,223467,4000
19,female,3071a.jpg,a,different,negative,a,1437,229771,4000
19,female,2580.jpg,l,same,neutral,l,1079,235579,4000
19,female,3000.jpg,a,different,negative,a,1935,242635,4000
19,female,3110a.jpg,a,different,negative,a,1375,248259,4000
19,female,7175a.jpg,a,different,neutral,l,888,253939,4000
19,female,9321.jpg,l,same,negative,l,1049,261283,4000
19,female,9433.jpg,l,same,negative,l,834,267251,4000
19,female,7187.jpg,a,different,neutral,a,954,273555,4000
19,female,7493a.jpg,a,different,neutral,a,1403,280187,4000
19,female,3010.jpg,a,different,negative,a,1780,286731,4000
19,female,3130.jpg,l,same,negative,l,1820,292954,4000
19,female,7011.jpg,l,same,neutral,a,1117,298418,4000
19,female,3150a.jpg,a,different,negative,a,1445,304930,4000
19,female,2880a.jpg,a,different,neutral,a,2406,312074,4000
19,female,3068.jpg,a,different,negative,a,1711,317546,4000
19,female,3080.jpg,a,different,negative,a,1056,324074,4000
19,female,7034a.jpg,a,different,neutral,a,680,329882,4000
19,female,7045.jpg,a,different,neutral,a,1033,336418,4000
19,female,3168.jpg,l,same,negative,l,793,342378,4000
19,female,3100a.jpg,a,different,negative,a,769,348538,4000
19,female,7500.jpg,l,same,neutral,l,1003,354938,4000
19,female,7205.jpg,a,different,neutral,a,1371,361490,4000
19,female,8485a.jpg,a,different,negative,a,2069,368338,4000
19,female,7700.jpg,l,same,neutral,l,1030,373466,4000
19,female,9921.jpg,l,same,negative,l,983,379602,4000
19,female,7491.jpg,a,different,neutral,a,1199,387018,4000
19,female,7550a.jpg,a,different,neutral,a,872,392874,4000
19,female,9570a.jpg,a,different,negative,a,809,398978,4000
19,female,9908.jpg,a,different,negative,a,992,405345,4000
19,female,7160.jpg,l,same,neutral,l,1689,412225,4000
19,female,7547.jpg,a,different,neutral,a,794,417497,4000
19,female,9500.jpg,a,different,negative,a,1203,424089,4000
19,female,7705a.jpg,a,different,neutral,a,2500,431553,4000
19,female,9904.jpg,l,same,negative,l,909,436145,4000
19,female,9414a.jpg,a,different,negative,l,1214,442617,4000
19,female,9210.jpg,a,different,neutral,a,1182,449769,4000
19,female,9360.jpg,l,same,neutral,l,1287,456057,4000
19,female,9413.jpg,l,same,negative,l,1624,462561,4000
19,female,7950a.jpg,a,different,neutral,a,1553,468673,4000
19,female,9410a.jpg,a,different,negative,a,1626,474913,4000
19,female,9252.jpg,a,different,negative,a,1483,480937,4000
19,female,7026a.jpg,a,different,neutral,a,1468,487105,4000
19,female,7035.jpg,l,same,neutral,l,909,492713,4000
19,female,3120.jpg,a,different,negative,a,1302,499289,4000
19,female,7039.jpg,a,different,neutral,a,823,504977,4000
19,female,3212.jpg,l,same,negative,l,1328,512649,4000
19,female,3170a.jpg,a,different,negative,l,897,518401,4000
19,female,7014.jpg,l,same,neutral,a,1864,525552,4000
19,female,3131.jpg,a,different,negative,a,1313,531184,4000
19,female,7010a.jpg,a,different,neutral,a,778,536832,4000
19,female,7009a.jpg,a,different,neutral,a,1843,544064,4000
19,female,3261.jpg,l,same,negative,l,1795,550200,4000
19,female,7060.jpg,l,same,neutral,a,2564,557152,4000
19,female,6830.jpg,a,different,negative,a,1005,561776,4000
19,female,3530.jpg,l,same,negative,l,1061,568000,4000
19,female,7002a.jpg,a,different,neutral,l,2207,576312,4000
19,female,3195.jpg,a,different,negative,a,768,581056,4000
19,female,6570a.jpg,a,different,negative,l,2313,588768,4000
19,female,7055.jpg,l,same,neutral,l,1138,593760,4000
19,female,7020.jpg,a,different,neutral,a,1003,599808,4000
19,female,6520.jpg,a,different,negative,a,1028,606000,4000
19,female,6834.jpg,l,same,negative,l,1381,612536,4000
19,female,7016.jpg,a,different,neutral,a,933,618272,4000
19,female,7000a.jpg,a,different,neutral,a,901,624440,4000
19,female,3500.jpg,a,different,negative,a,1334,631056,4000
19,female,5471.jpg,l,same,neutral,l,837,637743,4000
19,female,3005.jpg,l,same,negative,l,1334,644407,4000
19,female,3019a.jpg,a,different,negative,a,959,650215,4000
19,female,5725.jpg,a,different,neutral,a,1240,656679,4000
19,female,5711.jpg,a,different,neutral,a,1024,662647,4000
19,female,6230a.jpg,a,different,negative,l,1209,668999,4000
19,female,5750.jpg,l,same,neutral,l,762,674735,4000
19,female,5870a.jpg,a,different,neutral,a,1811,681967,4000
19,female,3400a.jpg,a,different,negative,l,988,687311,4000
19,female,3213.jpg,a,different,negative,a,948,693455,4000
19,female,7030.jpg,l,same,neutral,a,1501,701191,4000
19,female,6821.jpg,l,same,negative,l,934,706807,4000
19,female,7012.jpg,a,different,neutral,a,734,712791,4000
19,female,5390a.jpg,a,different,neutral,a,1078,719335,4000
19,female,6370.jpg,l,same,negative,l,1583,726007,4000
19,female,6415.jpg,a,different,negative,a,1504,732111,4000
19,female,7003.jpg,a,different,neutral,a,673,737463,4000
19,female,6021a.jpg,a,different,negative,a,977,743934,4000
19,female,5500a.jpg,a,different,neutral,a,1826,750950,4000
19,female,7041.jpg,l,same,neutral,l,723,756030,4000
19,female,6212.jpg,a,different,negative,l,1443,763918,4000
19,female,7050.jpg,l,same,neutral,l,836,769494,4000
19,female,6550a.jpg,a,different,negative,,0,0,4000
19,female,9810.jpg,a,different,negative,a,928,781886,4000
19,female,7161.jpg,a,different,neutral,a,857,787998,4000
19,female,9800.jpg,l,same,negative,l,1089,794414,4000
19,female,9300a.jpg,a,different,negative,l,1403,800894,4000
19,female,7017.jpg,l,same,neutral,l,884,806542,4000
19,female,7217.jpg,l,same,neutral,l,845,812686,4000
19,female,9425.jpg,a,different,negative,a,1477,819502,4000
19,female,9412.jpg,a,different,negative,a,1038,825246,4000
19,female,7090a.jpg,a,different,neutral,l,1047,831422,4000
19,female,7140.jpg,l,same,neutral,l,719,837294,4000
19,female,9187.jpg,a,different,negative,a,736,843478,4000
19,female,7040a.jpg,a,different,neutral,l,849,849774,4000
19,female,9183.jpg,l,same,negative,l,993,857118,4000
19,female,7006a.jpg,a,different,neutral,a,1009,863301,4000
19,female,7004a.jpg,a,different,neutral,a,857,869333,4000
19,female,9050.jpg,a,different,negative,a,1195,875837,4000
19,female,7031.jpg,a,different,neutral,a,715,881557,4000
19,female,9250.jpg,l,same,negative,l,1179,888205,4000
19,female,9163a.jpg,a,different,negative,l,1084,894293,4000
19,female,5720.jpg,l,same,neutral,l,868,900277,4000
19,female,6510.jpg,l,same,negative,l,1588,907181,4000
19,female,5740a.jpg,a,different,neutral,a,1174,912933,4000
19,female,5800.jpg,a,different,neutral,a,1206,920149,4000
19,female,6315a.jpg,a,different,negative,a,1535,926661,4000
19,female,3015.jpg,l,same,negative,l,912,932205,4000
19,female,2036a.jpg,a,different,neutral,a,969,938445,4000
19,female,3016a.jpg,a,different,negative,a,1714,945357,4000
19,female,5130.jpg,a,different,neutral,a,1082,950909,4000
19,female,3030.jpg,a,different,negative,a,1531,957541,4000
19,female,1450.jpg,l,same,neutral,a,1300,963493,4000
19,female,2683.jpg,l,same,negative,l,1180,969557,4000
19,female,1525a.jpg,a,different,negative,a,1453,977013,4000
19,female,7001.jpg,l,same,neutral,l,1061,982788,4000
19,female,1333.jpg,a,different,neutral,a,870,988780,4000
2,female,7150.jpg,a,different,neutral,l,938,94596,4000
2,female,8230.jpg,l,same,negative,a,1171,100996,4000
2,female,7188.jpg,l,same,neutral,l,836,106844,4000
2,female,3001a.jpg,a,different,negative,a,1165,114340,4000
2,female,2393.jpg,a,different,neutral,l,1261,120636,4000
2,female,7042a.jpg,a,different,neutral,a,933,126508,4000
2,female,3053a.jpg,a,different,negative,l,1949,133708,4000
2,female,2981.jpg,l,same,negative,a,998,138940,4000
2,female,2206.jpg,a,different,neutral,l,975,145100,4000
2,female,3059a.jpg,a,different,negative,l,2280,152572,4000
2,female,1910.jpg,a,different,neutral,l,1432,157908,4000
2,female,3069.jpg,l,same,negative,a,1105,163764,4000
2,female,2352.jpg,a,different,negative,l,906,169732,4000
2,female,7080a.jpg,a,different,neutral,a,1524,177516,4000
2,female,7100.jpg,a,different,neutral,l,1629,183788,4000
2,female,3064.jpg,l,same,negative,a,1373,189716,4000
2,female,3103.jpg,l,same,negative,a,1015,195524,4000
2,female,7038a.jpg,a,different,neutral,l,790,201483,4000
2,female,7056.jpg,a,different,neutral,l,823,207699,4000
2,female,3062a.jpg,a,different,negative,a,1712,214755,4000
2,female,7179.jpg,l,same,neutral,a,920,220147,4000
2,female,2730.jpg,a,different,negative,l,2042,227435,4000
2,female,3063a.jpg,a,different,negative,l,1003,232563,4000
2,female,2850a.jpg,a,different,neutral,l,1412,240139,4000
2,female,2038.jpg,l,same,neutral,a,1005,245915,4000
2,female,6838.jpg,a,different,negative,l,1334,252411,4000
2,female,7052.jpg,a,different,neutral,l,1135,258395,4000
2,female,2320.jpg,l,same,neutral,a,1311,264755,4000
2,female,3071a.jpg,a,different,negative,l,2177,271787,4000
2,female,2580.jpg,l,same,neutral,a,1137,276931,4000
2,female,3000.jpg,a,different,negative,l,1075,283035,4000
2,female,3110a.jpg,a,different,negative,l,1811,289939,4000
2,female,7175a.jpg,a,different,neutral,a,2228,296539,4000
2,female,9321.jpg,l,same,negative,a,1214,302691,4000
2,female,9433.jpg,l,same,negative,a,1038,308699,4000
2,female,7187.jpg,a,different,neutral,l,726,314554,4000
2,female,7493a.jpg,a,different,neutral,l,2576,322570,4000
2,female,3010.jpg,a,different,negative,a,1777,327938,4000
2,female,3130.jpg,l,same,negative,a,1794,334138,4000
2,female,7011.jpg,l,same,neutral,a,1107,339618,4000
2,female,3150a.jpg,a,different,negative,l,2556,347234,4000
2,female,2880a.jpg,a,different,neutral,a,1501,352346,4000
2,female,3068.jpg,a,different,negative,l,2486,359514,4000
2,female,3080.jpg,a,different,negative,l,1462,365674,4000
2,female,7034a.jpg,a,different,neutral,l,1215,371610,4000
2,female,7045.jpg,a,different,neutral,l,824,377402,4000
2,female,3168.jpg,l,same,negative,a,1008,383786,4000
2,female,3100a.jpg,a,different,negative,l,848,389810,4000
2,female,7500.jpg,l,same,neutral,a,2145,397290,4000
2,female,7205.jpg,a,different,neutral,l,1338,402650,4000
2,female,8485a.jpg,a,different,negative,l,2780,410242,4000
2,female,7700.jpg,l,same,neutral,l,1453,415082,4000
2,female,9921.jpg,l,same,negative,a,1206,421002,4000
2,female,7491.jpg,a,different,neutral,l,823,427785,4000
2,female,7550a.jpg,a,different,neutral,l,992,434121,4000
2,female,9570a.jpg,a,different,negative,a,1216,440545,4000
2,female,9908.jpg,a,different,negative,l,1288,446801,4000
2,female,7160.jpg,l,same,neutral,a,1194,452873,4000
2,female,7547.jpg,a,different,neutral,l,994,458857,4000
2,female,9500.jpg,a,different,negative,l,1795,465841,4000
2,female,7705a.jpg,a,different,neutral,l,715,470945,4000
2,female,9904.jpg,l,same,negative,a,964,477377,4000
2,female,9414a.jpg,a,different,negative,a,885,483481,4000
2,female,9210.jpg,a,different,neutral,l,974,490737,4000
2,female,9360.jpg,l,same,neutral,a,1031,496961,4000
2,female,9413.jpg,l,same,negative,a,1624,503737,4000
2,female,7950a.jpg,a,different,neutral,l,1185,509465,4000
2,female,9410a.jpg,a,different,negative,l,1913,516377,4000
2,female,9252.jpg,a,different,negative,l,1434,522081,4000
2,female,7026a.jpg,a,different,neutral,l,1067,527897,4000
2,female,7035.jpg,l,same,neutral,a,1163,534177,4000
2,female,3120.jpg,a,different,negative,a,2356,541553,4000
2,female,7039.jpg,a,different,neutral,l,932,546296,4000
2,female,3212.jpg,l,same,negative,a,1429,553976,4000
2,female,3170a.jpg,a,different,negative,l,1405,560136,4000
2,female,7014.jpg,l,same,neutral,a,1263,566160,4000
2,female,3131.jpg,a,different,negative,l,1431,572512,4000
2,female,7010a.jpg,a,different,neutral,l,1240,578504,4000
2,female,7009a.jpg,a,different,neutral,l,1265,584696,4000
2,female,3261.jpg,l,same,negative,a,1538,591152,4000
2,female,7060.jpg,l,same,neutral,a,2283,598064,4000
2,female,6830.jpg,a,different,negative,l,1531,603496,4000
2,female,3530.jpg,l,same,negative,a,948,609096,4000
2,female,7002a.jpg,a,different,neutral,l,805,616136,4000
2,female,3195.jpg,a,different,negative,l,1310,622808,4000
2,female,6570a.jpg,a,different,negative,a,2407,630072,4000
2,female,7055.jpg,l,same,neutral,l,1081,634896,4000
2,female,7020.jpg,a,different,neutral,l,1322,641320,4000
2,female,6520.jpg,a,different,negative,l,1179,647344,4000
2,female,6834.jpg,l,same,negative,l,1746,654095,4000
2,female,7016.jpg,a,different,neutral,l,883,659415,4000
2,female,7000a.jpg,a,different,neutral,l,883,665615,4000
2,female,3500.jpg,a,different,negative,l,1459,672375,4000
2,female,5471.jpg,l,same,neutral,a,885,678967,4000
2,female,3005.jpg,l,same,negative,a,1029,685295,4000
2,female,3019a.jpg,a,different,negative,l,1446,691895,4000
2,female,5725.jpg,a,different,neutral,l,1294,697927,4000
2,female,5711.jpg,a,different,neutral,l,1095,703911,4000
2,female,6230a.jpg,a,different,negative,l,1248,710247,4000
2,female,5750.jpg,l,same,neutral,a,984,716167,4000
2,female,5870a.jpg,a,different,neutral,l,809,722175,4000
2,female,3400a.jpg,a,different,negative,l,1914,729447,4000
2,female,3213.jpg,a,different,negative,l,1899,735615,4000
2,female,7030.jpg,l,same,neutral,l,1723,742623,4000
2,female,6821.jpg,l,same,negative,a,1309,748375,4000
2,female,7012.jpg,a,different,neutral,l,718,753951,4000
2,female,5390a.jpg,a,different,neutral,l,1030,760463,4000
2,female,6370.jpg,l,same,negative,a,966,766583,4000
2,female,6415.jpg,a,different,negative,l,1454,773254,4000
2,female,7003.jpg,a,different,neutral,l,1191,779158,4000
2,female,6021a.jpg,a,different,negative,l,1160,785294,4000
2,female,5500a.jpg,a,different,neutral,l,2098,792398,4000
2,female,7041.jpg,l,same,neutral,l,978,797462,4000
2,female,6212.jpg,a,different,negative,l,1763,805430,4000
2,female,7050.jpg,l,same,neutral,a,1275,811126,4000
2,female,6550a.jpg,a,different,negative,l,1845,817862,4000
2,female,9810.jpg,a,different,negative,l,973,823174,4000
2,female,7161.jpg,a,different,neutral,l,1134,829502,4000
2,female,9800.jpg,l,same,negative,a,1095,835646,4000
2,female,9300a.jpg,a,different,negative,l,1112,841846,4000
2,female,7017.jpg,l,same,neutral,a,1120,848054,4000
2,female,7217.jpg,l,same,neutral,a,1137,854238,4000
2,female,9425.jpg,a,different,negative,l,1298,860566,4000
2,female,9412.jpg,a,different,negative,l,1083,866534,4000
2,female,7090a.jpg,a,different,neutral,l,1083,872718,4000
2,female,7140.jpg,l,same,neutral,a,844,878662,4000
2,female,9187.jpg,a,different,negative,l,1165,885150,4000
2,female,7040a.jpg,a,different,neutral,l,1173,891341,4000
2,female,9183.jpg,l,same,negative,a,1030,898365,4000
2,female,7006a.jpg,a,different,neutral,l,1030,904549,4000
2,female,7004a.jpg,a,different,neutral,l,991,910693,4000
2,female,9050.jpg,a,different,negative,l,1144,917013,4000
2,female,7031.jpg,a,different,neutral,l,786,922821,4000
2,female,9250.jpg,l,same,negative,a,1035,929237,4000
2,female,9163a.jpg,a,different,negative,a,1972,936341,4000
2,female,5720.jpg,l,same,neutral,a,941,941493,4000
2,female,6510.jpg,l,same,negative,a,998,947717,4000
2,female,5740a.jpg,a,different,neutral,l,815,953717,4000
