Subject,Sex,condition,picture,arousal.RESP,arousal.RT,arousal.RTTime,dominance.RESP,dominance.RT,dominance.RTTime,valence.RESP,valence.RT,valence.RTTime
10,female,negative,1525a.jpg,8,4197,31550,8,2613,38006,8,689,32062
10,female,neutral,2036b.jpg,4,2203,44118,4,2398,52353,7,2547,48482
10,female,negative,9570b.jpg,4,2420,58897,3,2125,66641,2,2809,63305
10,female,negative,3400a.jpg,4,1971,73009,3,2387,81465,5,0,75058
10,female,neutral,5390a.jpg,1,3057,88657,8,2793,96433,8,1853,91473
10,female,neutral,2880b.jpg,6,1959,102121,7,3520,111785,6,1987,106169
10,female,negative,6315b.jpg,7,2207,116997,3,2439,125269,2,2731,121541
10,female,negative,6230a.jpg,8,2045,131397,2,1061,138453,2,2081,135453
10,female,neutral,7493b.jpg,2,2090,146004,9,2507,154460,8,2126,150060
10,female,negative,3150a.jpg,6,2473,160948,5,0,166515,3,1765,164260
10,female,neutral,7040a.jpg,1,2399,175436,5,0,181077,8,1427,178484
10,female,negative,6550b.jpg,7,3293,190892,3,2273,197912,2,1661,193280
10,female,neutral,7000a.jpg,1,3336,205496,8,3752,213952,7,3540,209720
10,female,neutral,7705b.jpg,4,2629,219351,7,2029,226791,6,2265,223007
10,female,negative,9163b.jpg,8,2795,234079,2,1883,241207,2,1495,236799
10,female,neutral,7010b.jpg,1,1753,247599,8,1258,255143,8,2349,252215
10,female,neutral,7090b.jpg,2,2548,262955,8,2172,270619,8,1712,266139
10,female,negative,3071b.jpg,7,1682,276651,2,2010,285019,2,2558,281547
10,female,negative,3170a.jpg,8,1624,291155,3,1728,299299,2,1308,294859
10,female,neutral,2036b.jpg,1,2375,306467,8,2694,314826,8,2307,310419
10,female,negative,3001a.jpg,8,3212,321866,2,1844,328538,2,1616,324290
10,female,negative,3019a.jpg,7,2146,335362,3,1758,343030,2,2642,339878
10,female,neutral,5390b.jpg,2,1924,349718,8,3828,359662,8,2488,354302
10,female,negative,3059b.jpg,8,3138,365494,3,3714,374110,2,2774,369150
10,female,neutral,2850b.jpg,2,2024,378942,5,0,384957,8,1628,382566
10,female,negative,3016a.jpg,7,2006,393485,4,2918,402437,3,1067,396566
10,female,negative,3071a.jpg,8,1708,407749,3,1660,415741,2,2352,412413
10,female,neutral,7002a.jpg,5,0,420603,9,2038,430681,9,2698,427321
10,female,neutral,5500b.jpg,2,2196,437361,8,2261,445465,7,3465,442649
10,female,negative,3110a.jpg,6,1691,451417,4,1563,459329,2,1207,454953
10,female,neutral,7004b.jpg,1,2929,467217,9,2800,475128,9,3509,471817
10,female,negative,3170a.jpg,8,3870,482720,3,3920,490876,2,1957,484889
10,female,neutral,7009b.jpg,1,2766,496244,8,3046,504564,8,3370,500868
10,female,negative,3400a.jpg,7,1980,510020,4,1684,517764,2,1560,513620
10,female,neutral,5870a.jpg,2,1682,524284,8,2011,532652,8,2343,528964
10,female,neutral,7080b.jpg,2,1521,538684,8,3113,548316,8,1965,543148
10,female,negative,3062b.jpg,7,2039,553764,4,1815,561580,7,3115,558860
10,female,neutral,7175b.jpg,2,1680,567967,8,2552,576879,8,2180,572487
10,female,negative,9410a.jpg,8,2159,583007,3,3607,592495,2,1779,586647
10,female,negative,6230b.jpg,7,1957,597367,2,1293,604743,2,1585,601015
10,female,neutral,7034a.jpg,2,1123,611095,7,2739,620751,7,3295,617287
10,female,negative,6570a.jpg,7,2209,626743,3,2162,634735,2,1606,630159
10,female,negative,3100a.jpg,6,1900,640995,4,1979,649114,3,2704,645819
10,female,neutral,5500a.jpg,2,2857,656514,8,1961,663658,8,2190,659867
10,female,neutral,7950b.jpg,1,2399,670618,9,2583,678842,9,3579,675818
10,female,negative,3150a.jpg,6,1582,684362,4,2110,692930,3,2282,689082
10,female,negative,3001b.jpg,7,2196,699538,3,3508,708890,3,1208,702570
10,female,neutral,7026b.jpg,1,3190,715094,9,3094,723038,8,1738,717662
10,female,neutral,7550a.jpg,1,1676,728142,8,2076,736581,8,2720,733205
10,female,negative,8485b.jpg,7,1954,742981,4,2578,751645,3,1630,746677
10,female,neutral,7038a.jpg,2,3360,758949,8,3768,767397,8,2588,762197
10,female,negative,6021a.jpg,7,2206,772357,2,2490,780681,2,1762,775933
10,female,negative,9414a.jpg,7,2265,786977,5,0,792752,3,2133,790865
10,female,neutral,2850a.jpg,2,2463,801737,8,3111,810425,8,1883,805177
10,female,neutral,7006b.jpg,5,0,813836,8,3076,824952,8,2401,820257
10,female,negative,3063a.jpg,5,0,828398,3,2163,838600,2,2247,834664
10,female,neutral,7040b.jpg,2,1929,844888,8,2433,853432,8,2781,849760
10,female,negative,9570a.jpg,7,1699,859220,3,3275,868836,2,1287,862828
10,female,negative,3019b.jpg,6,3345,875428,5,0,880189,3,1150,877316
10,female,neutral,7026a.jpg,1,3053,889764,9,2933,897684,9,1985,892716
10,female,neutral,7042a.jpg,1,2435,903708,8,2354,911667,8,2782,908075
10,female,negative,6570b.jpg,7,1945,917780,3,3049,926923,2,2125,921979
10,female,neutral,7002b.jpg,1,1371,931767,8,1915,940351,7,2351,936767
10,female,negative,3150b.jpg,7,1985,946943,4,2865,955863,2,3093,952071
10,female,neutral,7010a.jpg,1,3871,963391,8,1944,969567,8,2219,965759
10,female,neutral,7705a.jpg,1,3435,977583,8,2179,984367,8,2079,980247
10,female,negative,8485a.jpg,7,1664,990374,2,1848,998598,2,1892,994622
10,female,negative,3063b.jpg,8,2162,1005434,2,2987,1014298,2,1735,1009026
10,female,neutral,5740a.jpg,1,785,1018618,8,2321,1028194,8,1925,1023778
10,female,neutral,7009a.jpg,1,1343,1033738,8,1839,1042274,8,1843,1038258
10,female,negative,3110b.jpg,7,1605,1048562,2,2915,1057978,2,2699,1053738
10,female,neutral,7000b.jpg,1,1521,1063106,8,2097,1071722,8,1189,1066794
10,female,negative,3170b.jpg,8,2363,1078510,2,2530,1086717,2,1462,1081629
10,female,neutral,7080b.jpg,1,2968,1093677,8,2977,1101725,8,2341,1097069
10,female,neutral,7175a.jpg,1,1687,1106957,8,3095,1116405,8,1179,1110469
10,female,negative,3400a.jpg,7,3429,1123261,3,2773,1130645,2,2217,1126069
10,female,neutral,7006a.jpg,1,923,1135317,8,2459,1144893,8,1599,1140013
10,female,negative,6315a.jpg,7,3302,1152257,2,3693,1160688,2,1914,1154889
10,female,negative,9300a.jpg,2,2163,1165680,7,3835,1175392,4,2183,1169720
10,female,neutral,7493a.jpg,1,1705,1179784,8,2137,1188256,8,1949,1184048
10,female,negative,9410b.jpg,8,2095,1194736,2,1816,1202496,2,1340,1198000
10,female,negative,6021b.jpg,8,2166,1209368,2,1870,1217112,2,2242,1213464
10,female,neutral,7034b.jpg,2,772,1222536,6,2824,1232628,7,2116,1227900
10,female,negative,3100b.jpg,6,1750,1238076,4,3099,1247531,3,1154,1241564
10,female,neutral,2880a.jpg,5,0,1250954,4,2062,1261139,6,2438,1257491
10,female,neutral,7042b.jpg,2,1924,1267523,8,2828,1276467,7,2224,1271843
10,female,negative,9163a.jpg,7,1882,1282043,5,0,1288201,2,1638,1285819
10,female,neutral,5870b.jpg,2,2828,1297551,9,2773,1305599,8,2304,1301047
10,female,negative,3071b.jpg,5,0,1309351,5,0,1317391,6,2796,1316167
10,female,neutral,7004a.jpg,1,1774,1325687,8,2773,1334726,8,1434,1329367
10,female,neutral,2880b.jpg,2,2259,1340734,5,0,1346514,8,1808,1344302
10,female,negative,3016b.jpg,7,3194,1356230,3,2394,1363470,2,3670,1360726
10,female,neutral,5740b.jpg,1,1616,1369214,8,126,1375764,5,0,1371618
10,female,neutral,7950a.jpg,1,874,1383034,8,1827,1392026,8,3622,1389802
10,female,negative,3053a.jpg,5,0,1396721,6,3605,1408450,4,133,1400954
10,female,negative,3059a.jpg,7,2667,1414034,3,1811,1421217,2,3831,1419217
10,female,neutral,7038b.jpg,1,985,1426913,7,2649,1436617,8,2717,1432665
10,female,negative,9414b.jpg,7,1635,1442125,2,3507,1452037,2,2015,1446525
10,female,negative,6550a.jpg,7,1737,1456789,3,1634,1464725,3,1357,1460429
10,female,negative,7090a.jpg,1,736,1470349,9,2520,1480173,8,3260,1476893
11,female,negative,1525a.jpg,9,3142,35067,5,0,39965,2,4258,40203
11,female,neutral,2036b.jpg,1,2316,48803,8,3751,58278,5,2980,53487
11,female,negative,9570b.jpg,5,4309,65358,1,2118,71206,2,2473,67542
11,female,negative,3400a.jpg,5,3380,78990,1,3692,87342,1,1592,81222
11,female,neutral,5390a.jpg,1,2250,92422,7,2966,101246,9,1894,96086
11,female,neutral,2880b.jpg,5,3734,108534,5,1877,114717,5,2362,111182
11,female,negative,6315b.jpg,8,3828,123190,1,3051,130521,2,2151,125533
11,female,negative,6230a.jpg,1,2283,136273,8,2611,144641,3,3271,141281
11,female,neutral,7493b.jpg,1,2129,150681,7,2521,159113,7,2045,154617
11,female,negative,3150a.jpg,3,3400,166513,3,1351,172504,3,1828,168961
11,female,neutral,7040a.jpg,5,3245,180920,7,1957,187672,5,1737,183432
11,female,negative,6550b.jpg,8,3667,195904,1,2672,202948,3,3383,199640
11,female,neutral,7000a.jpg,2,3454,210252,9,2305,217212,8,2522,213340
11,female,neutral,7705b.jpg,1,2337,223764,8,2209,231675,8,2181,227628
11,female,negative,9163b.jpg,8,3151,239139,6,3295,247323,4,3595,243603
11,female,neutral,7010b.jpg,1,2165,252715,9,1901,260491,8,2321,256891
11,female,neutral,7090b.jpg,1,1659,266771,9,2112,275263,9,1600,270731
11,female,negative,3071b.jpg,6,2726,282399,2,2277,289990,3,1922,285615
11,female,negative,3170a.jpg,8,3187,297422,2,2939,305214,1,2271,300526
11,female,neutral,2036b.jpg,1,2170,310966,9,1362,318198,9,2086,314902
11,female,negative,3001a.jpg,9,2784,326142,1,1808,333206,1,1700,329078
11,female,negative,3019a.jpg,8,3725,341645,2,2103,348129,2,2654,344661
11,female,neutral,5390b.jpg,1,1730,354945,8,2946,364201,9,1454,358689
11,female,negative,3059b.jpg,8,3008,370785,3,2176,377993,1,2052,373849
11,female,neutral,2850b.jpg,1,1903,384241,7,2447,392825,8,2275,388633
11,female,negative,3016a.jpg,6,2484,399384,4,2004,406944,4,1801,402721
11,female,negative,3071a.jpg,6,3386,414848,4,1895,421396,5,2358,417840
11,female,neutral,7002a.jpg,1,1397,427420,5,3253,437316,9,1825,431868
11,female,neutral,5500b.jpg,1,1779,442364,5,2699,451324,8,1071,445676
11,female,negative,3110a.jpg,3,3265,458412,1,1961,465147,2,2149,461315
11,female,neutral,7004b.jpg,2,2239,471947,5,3031,480779,9,1723,475451
11,female,negative,3170a.jpg,8,4165,488435,1,1937,494247,3,2033,490323
11,female,neutral,7009b.jpg,1,1824,500655,9,1800,508671,7,3132,505983
11,female,negative,3400a.jpg,7,2470,515863,2,3221,524654,1,1233,518646
11,female,neutral,5870a.jpg,1,1531,529486,8,3356,539350,9,1343,533318
11,female,neutral,7080b.jpg,2,2666,545182,8,2970,553526,8,2406,548942
11,female,negative,3062b.jpg,8,2296,559374,1,3187,568305,1,1980,563078
11,female,neutral,7175b.jpg,1,1873,573513,9,2954,582633,9,1693,577353
11,female,negative,9410a.jpg,7,2392,588593,7,1631,595889,4,2979,593217
11,female,negative,6230b.jpg,1,2997,603777,1,2670,611489,4,2554,607353
11,female,neutral,7034a.jpg,1,2524,617865,5,3155,626536,5,2344,621705
11,female,negative,6570a.jpg,1,2329,632232,9,1717,639660,5,2726,636649
11,female,negative,3100a.jpg,8,3308,647772,1,3220,655724,2,3928,652412
11,female,neutral,5500a.jpg,1,1690,660716,9,2034,669100,9,3782,666828
11,female,neutral,7950b.jpg,7,1952,675540,4,2625,684252,5,3876,681484
11,female,negative,3150a.jpg,6,2614,690763,3,2542,698731,3,2946,695115
11,female,negative,3001b.jpg,9,2036,704747,1,1856,712607,1,1608,708339
11,female,neutral,7026b.jpg,1,3694,720967,9,2367,727679,9,1427,722719
11,female,neutral,7550a.jpg,1,1909,733743,9,1581,741455,9,1713,737567
11,female,negative,8485b.jpg,9,1842,748238,2,1627,756063,2,1830,752246
11,female,neutral,7038a.jpg,1,3241,764198,7,2524,771590,7,2877,767854
11,female,negative,6021a.jpg,7,1836,777422,2,2484,786110,3,2480,782086
11,female,negative,9414a.jpg,9,1711,791858,1,1862,800049,1,1755,795922
11,female,neutral,2850a.jpg,8,3548,808257,9,2164,814913,9,1976,810705
11,female,neutral,7006b.jpg,1,2450,821721,5,2555,829865,9,1382,824673
11,female,negative,3063a.jpg,4,2089,835921,3,2449,844321,3,2565,840417
11,female,neutral,7040b.jpg,5,2975,851369,5,0,856434,5,2595,855009
11,female,negative,9570a.jpg,1,2204,865160,3,2297,873292,4,2037,869012
11,female,negative,3019b.jpg,6,2279,879796,4,2175,887732,5,3387,884924
11,female,neutral,7026a.jpg,7,2101,894180,9,2365,902484,9,2425,898524
11,female,neutral,7042a.jpg,1,2388,909028,9,2595,917275,9,1583,912243
11,female,negative,6570b.jpg,1,2681,923883,9,1725,931035,5,3077,928299
11,female,neutral,7002b.jpg,1,2189,938019,9,1881,945751,9,2701,942551
11,female,negative,3150b.jpg,6,3087,953479,2,3047,961479,2,2019,956431
11,female,neutral,7010a.jpg,1,1765,966719,6,2837,975830,5,3377,972351
11,female,neutral,7705a.jpg,1,2507,982022,6,1867,989422,6,2999,986534
11,female,negative,8485a.jpg,9,2345,996422,2,2385,1004502,2,2213,1000310
11,female,negative,3063b.jpg,2,2979,1011618,1,1756,1018434,1,2160,1014818
11,female,neutral,5740a.jpg,1,2058,1025258,9,2345,1033585,9,2885,1030105
11,female,neutral,7009a.jpg,2,2263,1040025,9,1759,1047561,9,1779,1043561
11,female,negative,3110b.jpg,7,2342,1054665,3,1966,1062329,3,1522,1057865
11,female,neutral,7000b.jpg,2,2956,1069841,9,2316,1077241,8,2816,1073721
11,female,negative,3170b.jpg,7,2734,1084181,1,1726,1091212,1,2481,1087948
11,female,neutral,7080b.jpg,5,3452,1099460,5,2292,1106340,5,2312,1102340
11,female,neutral,7175a.jpg,1,2170,1112740,5,2426,1121036,5,2342,1116932
11,female,negative,3400a.jpg,7,2744,1127876,1,1721,1134892,2,2229,1131380
11,female,neutral,7006a.jpg,1,2103,1141796,5,2062,1149795,5,2298,1146011
11,female,negative,6315a.jpg,8,2344,1156599,1,2075,1164439,1,2332,1160607
11,female,negative,9300a.jpg,1,1972,1170855,1,2564,1179487,1,2168,1175071
11,female,neutral,7493a.jpg,1,2274,1185719,9,1930,1193415,9,1382,1188847
11,female,negative,9410b.jpg,7,2080,1200086,4,2528,1208574,3,2565,1204591
11,female,negative,6021b.jpg,7,2173,1214758,1,1982,1222606,3,1705,1218310
11,female,neutral,7034b.jpg,5,2396,1229542,5,1752,1236938,5,1820,1232986
11,female,negative,3100b.jpg,6,2606,1244314,2,1702,1251450,3,2082,1247810
11,female,neutral,2880a.jpg,4,1804,1258074,4,3900,1268209,4,2472,1262761
11,female,neutral,7042b.jpg,1,1810,1272641,9,2002,1280873,9,1286,1276137
11,female,negative,9163a.jpg,6,2200,1287593,3,2400,1295849,3,1684,1291113
11,female,neutral,5870b.jpg,1,2886,1302857,9,2666,1310677,9,1478,1305469
11,female,negative,3071b.jpg,5,3216,1317749,5,2733,1325372,1,2057,1320677
11,female,neutral,7004a.jpg,1,2915,1332076,5,0,1337201,5,2383,1335564
11,female,neutral,2880b.jpg,8,3449,1347172,8,3234,1354996,5,2869,1350612
11,female,negative,3016b.jpg,7,1960,1360244,1,1712,1368036,4,1860,1364164
11,female,neutral,5740b.jpg,1,1557,1374403,9,1665,1382551,9,2465,1379331
11,female,neutral,7950a.jpg,6,2143,1389551,4,2584,1398031,4,2124,1393551
11,female,negative,3053a.jpg,7,2542,1404511,2,2430,1412439,2,1914,1407903
11,female,negative,3059a.jpg,8,2564,1419095,1,1867,1426438,2,2696,1423247
11,female,neutral,7038b.jpg,7,3498,1434591,5,2226,1441358,5,2294,1437406
11,female,negative,9414b.jpg,9,2860,1448514,2,2404,1456098,3,3116,1452790
11,female,negative,6550a.jpg,1,3042,1463258,1,2898,1471154,2,1654,1465890
11,female,negative,7090a.jpg,1,1729,1476506,5,0,1482817,9,1805,1480602
12,female,negative,1525a.jpg,5,0,29262,2,2242,39544,2,3621,36903
12,female,neutral,2036b.jpg,1,2448,46271,5,3720,55583,5,1124,48967
12,female,negative,9570b.jpg,4,3070,61455,3,3598,70023,4,1778,64183
12,female,negative,3400a.jpg,5,2148,75095,4,3813,84799,6,1744,78711
12,female,neutral,5390a.jpg,1,1667,89175,1,2894,98442,7,2610,94138
12,female,neutral,2880b.jpg,1,2492,104562,5,0,110110,5,1032,107122
12,female,negative,6315b.jpg,8,2450,119082,8,2699,127370,1,1991,122642
12,female,negative,6230a.jpg,6,2417,133610,3,2393,141626,4,3581,138794
12,female,neutral,7493b.jpg,1,3831,149586,5,0,153857,8,4402,154177
12,female,negative,3150a.jpg,4,3658,164041,6,1886,170309,3,2442,166845
12,female,neutral,7040a.jpg,1,4292,179237,8,3397,186445,6,4560,183525
12,female,negative,6550b.jpg,6,1712,191285,6,2016,199629,3,2436,196029
12,female,neutral,7000a.jpg,1,2366,206501,9,1764,214005,5,1322,209477
12,female,neutral,7705b.jpg,1,2017,220780,9,2225,229028,6,2109,224892
12,female,negative,9163b.jpg,5,3247,236572,4,2025,243456,1,3119,240464
12,female,neutral,7010b.jpg,1,2551,250504,9,2559,258552,6,1491,253464
12,female,neutral,7090b.jpg,1,2077,264592,9,2082,272703,6,983,267583
12,female,negative,3071b.jpg,4,3200,280343,7,2328,287511,4,2884,284047
12,female,negative,3170a.jpg,6,4438,296143,6,2204,302015,3,2113,297903
12,female,neutral,2036b.jpg,1,2090,308423,9,1774,316147,6,1486,311839
12,female,negative,3001a.jpg,6,3147,324042,9,2249,331250,4,1351,326330
12,female,negative,3019a.jpg,4,2287,337810,7,2071,345634,4,2075,341618
12,female,neutral,5390b.jpg,1,2061,352146,9,1694,359818,9,1153,355258
12,female,negative,3059b.jpg,4,3444,368090,5,0,372686,3,2776,371442
12,female,neutral,2850b.jpg,1,2673,381881,6,1477,388725,7,1893,385121
12,female,negative,3016a.jpg,4,2963,396733,8,1716,403525,4,1512,399301
12,female,negative,3071a.jpg,4,1674,410005,8,2034,418405,3,1366,413717
12,female,neutral,7002a.jpg,1,2024,424917,9,1912,432845,5,0,426913
12,female,neutral,5500b.jpg,1,2422,439876,9,2446,447940,6,1186,442660
12,female,negative,3110a.jpg,4,1684,453700,8,1720,461776,3,3008,459044
12,female,neutral,7004b.jpg,1,3598,470176,9,1463,476080,6,2210,472808
12,female,negative,3170a.jpg,4,3101,484240,8,1389,490568,3,2297,487456
12,female,neutral,7009b.jpg,1,1635,497336,9,1994,505735,6,3822,503543
12,female,negative,3400a.jpg,4,3688,513951,9,1361,519663,3,2069,516351
12,female,neutral,5870a.jpg,1,4141,528965,9,1707,534571,9,2451,531295
12,female,neutral,7080b.jpg,1,1481,540867,9,3224,550650,6,3188,546594
12,female,negative,3062b.jpg,4,3111,557058,8,1591,563578,2,1643,559610
12,female,neutral,7175b.jpg,1,2349,570858,9,1789,578338,6,2241,574770
12,female,negative,9410a.jpg,4,3763,586834,8,1894,593138,4,2327,589482
12,female,negative,6230b.jpg,4,2324,600090,8,1735,607541,4,3044,604830
12,female,neutral,7034a.jpg,1,1975,614302,9,2238,622605,5,0,616347
12,female,negative,6570a.jpg,4,1780,628669,9,2964,637893,4,1800,632709
12,female,negative,3100a.jpg,4,1274,642725,8,1675,651165,3,1598,647069
12,female,neutral,5500a.jpg,1,2265,658277,9,1641,665693,5,0,660032
12,female,neutral,7950b.jpg,1,2614,673188,9,1722,680336,5,0,674594
12,female,negative,3150a.jpg,4,2000,687136,7,3577,696752,4,4709,693864
12,female,negative,3001b.jpg,5,4719,704416,5,0,707821,5,0,703717
12,female,neutral,7026b.jpg,1,2186,716528,9,1752,724151,9,3420,721799
12,female,neutral,7550a.jpg,1,2175,731095,9,1471,738431,7,2227,735167
12,female,negative,8485b.jpg,2,2989,746471,9,1557,753079,4,2649,750151
12,female,neutral,7038a.jpg,1,2311,760355,9,2471,768555,9,4875,766939
12,female,negative,6021a.jpg,2,2046,774651,8,1262,781907,3,2698,779323
12,female,negative,9414a.jpg,2,2635,789802,8,1491,796698,3,3015,794202
12,female,neutral,2850a.jpg,1,2241,803970,9,1354,811122,8,1085,806834
12,female,neutral,7006b.jpg,1,1768,818058,9,2152,826482,5,3148,823458
12,female,negative,3063a.jpg,2,1506,832358,8,1361,840317,3,2078,836950
12,female,neutral,7040b.jpg,1,2125,847605,9,2277,855797,5,0,849500
12,female,negative,9570a.jpg,3,1851,861893,5,1051,869133,2,3631,867693
12,female,negative,3019b.jpg,2,2354,876957,8,1538,884181,4,1166,879789
12,female,neutral,7026a.jpg,1,2472,891637,9,1767,898972,9,1691,894876
12,female,neutral,7042a.jpg,1,2378,906105,9,1385,913152,8,1397,909144
12,female,negative,6570b.jpg,2,2088,920376,8,1968,928296,2,1876,924184
12,female,neutral,7002b.jpg,1,1806,934656,5,0,940890,5,0,936870
12,female,negative,3150b.jpg,2,3700,951112,8,2084,957535,3,1913,953344
12,female,neutral,7010a.jpg,1,2010,963983,9,2154,972167,6,2022,968015
12,female,neutral,7705a.jpg,1,1956,978491,9,1580,986155,5,0,980555
12,female,negative,8485a.jpg,2,3186,994283,9,1371,1000507,3,3335,998451
12,female,negative,3063b.jpg,3,2513,1008171,8,1512,1015210,3,1589,1011267
12,female,neutral,5740a.jpg,1,1990,1022210,9,1270,1029530,5,3162,1027402
12,female,neutral,7009a.jpg,1,1877,1036658,9,2477,1045298,6,1689,1040490
12,female,negative,3110b.jpg,3,3631,1052974,8,1519,1058902,2,2563,1055926
12,female,neutral,7000b.jpg,1,3108,1067013,9,1757,1073701,5,1897,1069822
12,female,negative,3170b.jpg,2,2179,1080645,8,1603,1088109,2,1823,1084309
12,female,neutral,7080b.jpg,1,2769,1095797,9,2833,1103901,6,4517,1101565
12,female,neutral,7175a.jpg,1,1719,1109309,9,2338,1118049,5,0,1111609
12,female,negative,3400a.jpg,2,2525,1124760,8,2662,1132936,3,1898,1128152
12,female,neutral,7006a.jpg,1,2892,1139688,9,1690,1146608,5,0,1140816
12,female,negative,6315a.jpg,2,2431,1153872,8,1847,1161328,3,3931,1159392
12,female,negative,9300a.jpg,2,2797,1168800,9,1956,1176064,4,3289,1173312
12,female,neutral,7493a.jpg,1,2201,1182832,9,1312,1189983,7,2388,1187039
12,female,negative,9410b.jpg,2,3282,1198475,8,1474,1204771,2,2006,1201219
12,female,negative,6021b.jpg,2,2094,1211915,8,2566,1220427,2,1690,1215531
12,female,neutral,7034b.jpg,1,1340,1225723,9,1529,1234034,5,0,1228403
12,female,negative,3100b.jpg,2,3094,1242122,8,1614,1248682,2,1802,1244850
12,female,neutral,2880a.jpg,1,4404,1257994,9,1453,1263082,4,2377,1259986
12,female,neutral,7042b.jpg,2,4531,1272682,9,1811,1278086,5,0,1272171
12,female,negative,9163a.jpg,1,2986,1285782,8,1394,1292230,2,2830,1289646
12,female,neutral,5870b.jpg,1,1616,1298974,7,2709,1308173,7,1148,1302589
12,female,negative,3071b.jpg,3,4395,1316381,8,1979,1322005,2,2559,1318565
12,female,neutral,7004a.jpg,1,1585,1328133,9,2400,1337069,5,0,1330568
12,female,neutral,2880b.jpg,2,2984,1344177,9,2283,1351665,5,0,1345277
12,female,negative,3016b.jpg,2,2160,1358064,8,1752,1365696,2,3244,1363168
12,female,neutral,5740b.jpg,1,1606,1372072,9,2142,1380648,5,0,1374486
12,female,neutral,7950a.jpg,1,2068,1387096,9,1490,1394624,5,0,1389114
12,female,negative,3053a.jpg,1,2872,1402528,8,3192,1410888,2,1820,1405496
12,female,negative,3059a.jpg,3,4009,1418227,8,2071,1424395,2,2349,1420652
12,female,neutral,7038b.jpg,1,3365,1432211,8,2420,1439387,5,0,1432866
12,female,negative,9414b.jpg,2,3801,1447292,8,1760,1453291,2,1900,1449411
12,female,negative,6550a.jpg,2,1758,1459811,9,2439,1468531,2,3682,1465755
12,female,negative,7090a.jpg,1,2804,1475418,9,1965,1482698,5,0,1476634
13,female,negative,1525a.jpg,4,1727,38391,4,2654,47358,3,3474,44158
13,female,neutral,2036b.jpg,2,1276,52502,2,2325,61590,3,2984,58230
13,female,negative,9570b.jpg,6,2283,68070,4,2827,76654,4,1399,71206
13,female,negative,3400a.jpg,6,1585,81934,3,2889,91278,3,2141,86510
13,female,neutral,5390a.jpg,3,1639,96550,7,2103,105053,7,1719,100649
13,female,neutral,2880b.jpg,6,1497,110969,4,3097,120609,4,757,114249
13,female,negative,6315b.jpg,6,1815,125849,3,1111,133185,3,883,128937
13,female,negative,6230a.jpg,7,1885,140481,2,2190,148825,2,1042,143657
13,female,neutral,7493b.jpg,4,1723,154880,7,2971,164168,6,2328,159505
13,female,negative,3150a.jpg,7,1777,169496,6,2494,178252,3,2181,173920
13,female,neutral,7040a.jpg,1,3084,185364,8,3580,193900,6,2808,189108
13,female,negative,6550b.jpg,7,1570,198412,2,2522,207404,2,1806,202668
13,female,neutral,7000a.jpg,1,1712,213116,5,0,219443,7,2477,217900
13,female,neutral,7705b.jpg,2,3183,229148,5,0,234005,7,2330,232315
13,female,negative,9163b.jpg,7,2876,243403,3,2592,251159,5,0,244547
13,female,neutral,7010b.jpg,2,2055,257143,7,679,263807,7,1795,260903
13,female,neutral,7090b.jpg,1,2709,272359,8,1756,279446,8,1849,275519
13,female,negative,3071b.jpg,8,1826,286038,4,2699,294950,2,1710,289942
13,female,negative,3170a.jpg,7,2265,301038,4,2017,308830,3,1501,304294
13,female,neutral,2036b.jpg,1,1351,314686,8,1003,322378,8,2167,319522
13,female,negative,3001a.jpg,7,2265,330162,4,1585,337521,2,1348,333265
13,female,negative,3019a.jpg,6,1663,344121,7,2199,352697,4,1539,348017
13,female,neutral,5390b.jpg,1,1077,358097,8,1717,366777,8,633,361673
13,female,negative,3059b.jpg,7,2148,373729,6,756,380377,3,384,375985
13,female,neutral,2850b.jpg,3,1281,387424,6,1253,395436,6,2141,392304
13,female,negative,3016a.jpg,7,1347,402052,4,1092,409836,2,1111,405836
13,female,negative,3071a.jpg,7,1210,416476,4,594,423900,2,494,419780
13,female,neutral,7002a.jpg,1,1424,431252,8,1591,439459,6,2428,436276
13,female,neutral,5500b.jpg,2,694,445084,8,2102,454531,4,2081,450491
13,female,negative,3110a.jpg,7,1388,460339,3,888,467879,1,968,463939
13,female,neutral,7004b.jpg,2,2638,476151,7,1894,483447,7,2554,480087
13,female,negative,3170a.jpg,7,1997,490071,4,2613,498727,2,1585,493679
13,female,neutral,7009b.jpg,1,939,503575,8,2914,513590,6,2246,508902
13,female,negative,3400a.jpg,6,1384,518582,4,961,526198,3,1420,522638
13,female,neutral,5870a.jpg,1,1391,533150,8,2503,542302,8,1923,537702
13,female,neutral,7080b.jpg,2,1897,548218,7,2401,556762,5,0,550341
13,female,negative,3062b.jpg,8,1895,562778,3,751,569673,1,1891,566793
13,female,neutral,7175b.jpg,1,2005,577449,8,429,583913,6,641,580105
13,female,negative,9410a.jpg,7,2035,592041,2,1131,599177,2,3255,597281
13,female,negative,6230b.jpg,6,1898,606465,3,957,613564,3,366,608953
13,female,neutral,7034a.jpg,3,2691,621820,4,2283,629452,4,631,623780
13,female,negative,6570a.jpg,6,1969,635660,3,498,642228,4,773,638484
13,female,negative,3100a.jpg,6,1464,649716,5,1768,658060,3,1260,653532
13,female,neutral,5500a.jpg,1,990,663804,7,1670,672524,6,881,667715
13,female,neutral,7950b.jpg,2,2107,679483,6,1956,687371,6,2152,683547
13,female,negative,3150a.jpg,6,2182,694119,4,710,700687,3,1690,697647
13,female,negative,3001b.jpg,7,2196,708695,4,1668,716207,1,2336,712855
13,female,neutral,7026b.jpg,1,1091,722151,8,874,729974,8,655,725735
13,female,neutral,7550a.jpg,2,1513,737135,7,1872,745534,6,2588,742230
13,female,negative,8485b.jpg,7,2142,752326,3,623,758846,3,490,754694
13,female,neutral,7038a.jpg,3,2153,766898,6,1169,773954,3,669,769434
13,female,negative,6021a.jpg,7,3631,782938,4,678,788025,3,1538,784865
13,female,negative,9414a.jpg,6,1933,795802,4,1165,803073,4,473,798361
13,female,neutral,2850a.jpg,2,1763,810193,7,771,817241,7,2415,814865
13,female,neutral,7006b.jpg,2,1801,824793,8,2245,833277,7,2325,829337
13,female,negative,3063a.jpg,7,1980,839533,3,427,846020,2,456,842029
13,female,neutral,7040b.jpg,4,1201,853316,6,1313,861468,3,493,856628
13,female,negative,9570a.jpg,6,2303,868980,4,629,875412,4,1105,871868
13,female,negative,3019b.jpg,7,1219,882524,4,1739,891084,2,1943,887268
13,female,neutral,7026a.jpg,6,1249,897116,8,481,904388,8,1277,901164
13,female,neutral,7042a.jpg,2,1523,911951,7,995,919463,4,1271,915719
13,female,negative,6570b.jpg,6,1737,926727,5,0,933030,4,2509,931519
13,female,neutral,7002b.jpg,3,2735,942287,7,2496,950087,5,0,943571
13,female,negative,3150b.jpg,6,1270,955383,4,1853,964006,3,338,958471
13,female,neutral,7010a.jpg,3,1003,969678,7,2203,978918,5,0,972695
13,female,neutral,7705a.jpg,2,1630,984866,8,1190,992466,6,1322,988578
13,female,negative,8485a.jpg,6,1524,999322,4,1652,1007490,3,1808,1003626
13,female,negative,3063b.jpg,8,1930,1014290,2,937,1021337,1,1854,1018234
13,female,neutral,5740a.jpg,3,3560,1030481,8,864,1035825,6,1132,1032073
13,female,neutral,7009a.jpg,3,2214,1043697,8,1942,1051465,5,0,1045503
13,female,negative,3110b.jpg,7,2020,1058065,4,713,1064797,2,449,1060513
13,female,neutral,7000b.jpg,1,3879,1074485,4,1734,1080380,6,3162,1077788
13,female,negative,3170b.jpg,6,1156,1086324,5,0,1093208,3,528,1089716
13,female,neutral,7080b.jpg,2,1850,1101580,8,1403,1109172,6,3423,1107172
13,female,neutral,7175a.jpg,1,985,1115276,8,2377,1124708,6,1117,1119428
13,female,negative,3400a.jpg,6,1735,1130588,8,1802,1138695,4,1354,1134227
13,female,neutral,7006a.jpg,1,2649,1146063,8,1689,1153143,6,1989,1149423
13,female,negative,6315a.jpg,7,1583,1159559,3,3135,1169151,2,1835,1163831
13,female,negative,9300a.jpg,5,1517,1174055,4,606,1181183,2,465,1177023
13,female,neutral,7493a.jpg,6,1828,1188927,7,1155,1196294,7,775,1191894
13,female,negative,9410b.jpg,8,1645,1203306,2,629,1210330,1,809,1206490
13,female,negative,6021b.jpg,6,1276,1217498,4,1484,1225746,3,400,1220642
13,female,neutral,7034b.jpg,7,3122,1233906,4,1841,1240665,4,1974,1236778
13,female,negative,3100b.jpg,7,2127,1247473,5,0,1253386,2,1915,1251281
13,female,neutral,2880a.jpg,6,2438,1262345,4,2766,1270713,3,2322,1266249
13,female,neutral,7042b.jpg,2,3452,1277921,7,3040,1285549,4,3084,1281573
13,female,negative,9163a.jpg,6,1542,1290573,3,3295,1300365,3,1602,1294653
13,female,neutral,5870b.jpg,1,1748,1305340,8,2740,1314372,8,3088,1310700
13,female,negative,3071b.jpg,7,1874,1320028,4,2642,1328836,3,1582,1323756
13,female,neutral,7004a.jpg,2,1928,1334644,7,1833,1342588,6,1717,1338452
13,female,neutral,2880b.jpg,7,1935,1349212,4,2515,1357832,3,1131,1352428
13,female,negative,3016b.jpg,7,1897,1363736,4,729,1370607,2,308,1366167
13,female,neutral,5740b.jpg,2,2951,1379351,7,1591,1386031,7,2867,1383287
13,female,neutral,7950a.jpg,3,2797,1393759,7,2461,1401463,4,2457,1397439
13,female,negative,3053a.jpg,6,1747,1407271,3,3027,1416590,3,2223,1411767
13,female,negative,3059a.jpg,7,970,1421055,3,673,1428798,2,245,1424350
13,female,neutral,7038b.jpg,2,1451,1436098,8,195,1442882,4,131,1438798
13,female,negative,9414b.jpg,7,2305,1451514,3,3426,1460674,2,3862,1457090
13,female,negative,6550a.jpg,6,1888,1465658,2,495,1472305,3,364,1468154
13,female,negative,7090a.jpg,1,1661,1479993,8,1749,1488121,6,2121,1484473
14,female,negative,1525a.jpg,2,1872,27031,5,0,33199,3,2404,31583
14,female,neutral,2036b.jpg,1,1918,41639,8,2592,50419,8,1968,45775
14,female,negative,9570b.jpg,5,3942,58291,7,2125,64514,3,3026,61395
14,female,negative,3400a.jpg,6,1643,70554,6,2513,79530,4,2351,75346
14,female,neutral,5390a.jpg,1,2415,85954,8,1815,93394,8,2587,90146
14,female,neutral,2880b.jpg,1,1117,99218,9,3982,110122,8,1249,103370
14,female,negative,6315b.jpg,3,1920,114582,7,1584,122286,6,1943,118625
14,female,negative,6230a.jpg,3,1525,128749,5,0,135347,5,0,131244
14,female,neutral,7493b.jpg,1,2144,144013,8,1096,151005,8,1172,147061
14,female,negative,3150a.jpg,6,2206,158637,4,1439,165909,3,1243,161693
14,female,neutral,7040a.jpg,1,1669,172661,8,2917,181949,7,1721,176733
14,female,negative,6550b.jpg,4,1834,187388,7,2118,195712,4,1214,190788
14,female,neutral,7000a.jpg,1,1357,201472,9,1405,209560,8,1961,206096
14,female,neutral,7705b.jpg,1,1083,215760,9,571,223288,9,1391,220088
14,female,negative,9163b.jpg,5,0,229239,4,1820,239264,5,0,233341
14,female,neutral,7010b.jpg,1,960,244927,8,552,252559,8,2108,250095
14,female,neutral,7090b.jpg,1,918,259447,9,622,267191,9,242,262791
14,female,negative,3071b.jpg,5,3249,276339,4,2801,283931,4,3341,280451
14,female,negative,3170a.jpg,6,1671,289323,6,1494,297186,4,683,292355
14,female,neutral,2036b.jpg,1,996,303210,9,1418,311738,9,153,306450
14,female,negative,3001a.jpg,6,1568,318410,4,1560,326442,4,1212,322074
14,female,negative,3019a.jpg,6,2158,333562,5,0,339523,5,0,335424
14,female,neutral,5390b.jpg,1,1044,347093,9,939,355094,9,226,350358
14,female,negative,3059b.jpg,4,1224,361901,6,1457,370253,5,0,364697
14,female,neutral,2850b.jpg,1,451,375773,9,1059,384421,9,375,379717
14,female,negative,3016a.jpg,4,1817,391701,7,2154,400077,4,1149,395053
14,female,negative,3071a.jpg,5,0,404445,6,1236,413804,4,1842,410389
14,female,neutral,7002a.jpg,1,558,419648,9,262,427392,9,754,423864
14,female,neutral,5500b.jpg,2,1604,435256,9,1508,443200,6,1840,439512
14,female,negative,3110a.jpg,4,1786,450000,6,190,456528,5,0,452233
14,female,neutral,7004b.jpg,1,373,463232,9,1022,471920,9,224,467103
14,female,negative,3170a.jpg,5,0,477420,6,1796,487339,4,1291,482815
14,female,neutral,7009b.jpg,1,694,492759,9,1970,502075,9,462,496547
14,female,negative,3400a.jpg,5,0,506627,5,0,514833,5,0,510727
14,female,neutral,5870a.jpg,1,623,521978,9,871,530266,9,339,525714
14,female,neutral,7080b.jpg,1,1125,537042,9,653,544610,9,1097,541034
14,female,negative,3062b.jpg,6,1515,551994,5,0,558518,3,1760,556258
14,female,neutral,7175b.jpg,1,546,565586,9,782,573862,9,754,569814
14,female,negative,9410a.jpg,4,1484,581086,7,1755,589397,6,1943,585565
14,female,negative,6230b.jpg,4,730,594893,7,1738,603941,7,2022,600205
14,female,neutral,7034a.jpg,1,568,609293,9,816,617581,8,436,613181
14,female,negative,6570a.jpg,3,1550,624837,8,1710,633036,6,2202,629509
14,female,negative,3100a.jpg,4,1841,639689,8,720,646608,6,1037,642905
14,female,neutral,5500a.jpg,1,878,653288,9,638,661088,8,1442,657872
14,female,neutral,7950b.jpg,1,500,667472,9,1109,676120,9,833,671824
14,female,negative,3150a.jpg,5,0,681533,5,0,689739,5,0,685635
14,female,negative,3001b.jpg,5,0,696262,7,1578,705963,4,1247,701608
14,female,neutral,7026b.jpg,1,924,711831,9,1249,720195,9,748,715675
14,female,neutral,7550a.jpg,1,847,726315,9,831,734339,9,355,729843
14,female,negative,8485b.jpg,4,2509,742539,8,1316,749386,4,1993,746043
14,female,neutral,7038a.jpg,1,603,755195,9,1387,764018,9,1271,759882
14,female,negative,6021a.jpg,3,1009,770162,8,1161,778354,6,1445,774618
14,female,negative,9414a.jpg,4,1711,785426,7,2017,793854,5,0,787735
14,female,neutral,2850a.jpg,1,790,799150,9,1318,807718,9,346,802726
14,female,neutral,7006b.jpg,1,644,813565,9,434,821461,9,593,817534
14,female,negative,3063a.jpg,5,0,827550,6,2924,838597,4,1000,832653
14,female,neutral,7040b.jpg,1,610,842805,8,3562,853797,9,334,846549
14,female,negative,9570a.jpg,4,1613,858369,8,1204,866000,5,2793,863569
14,female,negative,3019b.jpg,4,1562,872880,8,845,880288,5,0,875338
14,female,neutral,7026a.jpg,1,685,886648,9,293,894296,9,545,890528
14,female,neutral,7042a.jpg,1,883,901408,9,169,908800,9,248,904856
14,female,negative,6570b.jpg,4,1695,916848,8,2287,925480,6,1203,920376
14,female,neutral,7002b.jpg,1,572,930287,9,974,938795,9,128,933863
14,female,negative,3150b.jpg,6,1716,946059,6,1756,954139,4,1160,949523
14,female,neutral,7010a.jpg,1,898,959803,9,747,967691,9,518,963443
14,female,neutral,7705a.jpg,1,977,974443,9,976,982482,9,413,977899
14,female,negative,8485a.jpg,3,870,988898,7,2574,998642,6,2034,994082
14,female,negative,3063b.jpg,6,988,1003578,5,0,1010629,3,609,1007218
14,female,neutral,5740a.jpg,1,863,1018014,9,559,1025750,9,3475,1024646
14,female,neutral,7009a.jpg,1,789,1032502,9,661,1040414,9,345,1036078
14,female,negative,3110b.jpg,5,0,1046274,5,0,1054482,5,0,1050377
14,female,neutral,7000b.jpg,1,578,1061581,9,632,1069741,9,1238,1066261
14,female,negative,3170b.jpg,5,0,1075631,6,887,1084641,4,290,1080025
14,female,neutral,7080b.jpg,1,1229,1091505,9,956,1099272,9,617,1094913
14,female,neutral,7175a.jpg,1,1274,1106112,9,610,1113488,9,1126,1109984
14,female,negative,3400a.jpg,5,0,1119399,6,669,1128192,4,665,1124168
14,female,neutral,7006a.jpg,1,820,1134864,9,652,1142736,9,3408,1141472
14,female,negative,6315a.jpg,3,962,1149568,6,1083,1157811,5,0,1152626
14,female,negative,9300a.jpg,2,1448,1164699,9,743,1172051,6,940,1168211
14,female,neutral,7493a.jpg,1,470,1178299,9,302,1186171,9,127,1181976
14,female,negative,9410b.jpg,4,2676,1195067,6,244,1200675,4,1184,1197595
14,female,negative,6021b.jpg,4,1418,1208371,7,168,1215242,5,0,1210973
14,female,neutral,7034b.jpg,1,1388,1222986,9,580,1230218,9,1016,1226634
14,female,negative,3100b.jpg,5,0,1236159,6,2628,1246910,4,970,1241230
14,female,neutral,2880a.jpg,3,2778,1253582,9,738,1259582,7,2110,1256934
14,female,neutral,7042b.jpg,1,1264,1266630,9,1279,1274685,9,1028,1270414
14,female,negative,9163a.jpg,4,1725,1281653,9,718,1288685,6,1825,1285773
14,female,neutral,5870b.jpg,1,508,1294997,9,1024,1303553,9,344,1298853
14,female,negative,3071b.jpg,5,0,1309051,6,1955,1319129,4,470,1313625
14,female,neutral,7004a.jpg,1,537,1324233,9,616,1332352,9,3861,1331577
14,female,neutral,2880b.jpg,1,582,1338840,9,3511,1349808,9,667,1342944
14,female,negative,3016b.jpg,5,0,1352819,6,618,1361560,4,212,1357136
14,female,neutral,5740b.jpg,1,1304,1368768,9,1148,1376652,9,300,1371784
14,female,neutral,7950a.jpg,1,1505,1383531,9,409,1390475,9,374,1386420
14,female,negative,3053a.jpg,5,0,1396587,6,1633,1406411,4,210,1400899
14,female,negative,3059a.jpg,5,0,1411299,5,0,1419422,4,176,1415579
14,female,neutral,7038b.jpg,1,1003,1426947,9,915,1434899,9,543,1430507
14,female,negative,9414b.jpg,5,0,1440506,5,0,1448629,4,362,1444971
14,female,negative,6550a.jpg,3,511,1455662,8,2775,1465966,6,2219,1461390
14,female,negative,7090a.jpg,1,582,1470294,9,566,1478318,9,210,1473942
15,male,negative,1525a.jpg,6,1476,28951,4,2059,37574,3,2048,33543
15,male,neutral,2036b.jpg,1,2921,44958,7,2344,52486,6,2341,48398
15,male,negative,9570b.jpg,8,2141,58806,5,0,64705,1,1809,62494
15,male,negative,3400a.jpg,6,1971,73198,6,2771,82038,1,1631,76878
15,male,neutral,5390a.jpg,1,1338,87126,5,0,93828,7,1926,91734
15,male,neutral,2880b.jpg,2,2411,102761,5,0,108390,5,3491,107861
15,male,negative,6315b.jpg,8,2265,117177,5,0,123018,1,949,119945
15,male,negative,6230a.jpg,7,2725,132265,3,709,138289,2,1489,135049
15,male,neutral,7493b.jpg,1,1251,145353,5,0,152141,5,0,148122
15,male,negative,3150a.jpg,5,0,158663,5,0,166703,1,1405,164088
15,male,neutral,7040a.jpg,1,1939,175164,5,0,181265,5,0,177245
15,male,negative,6550b.jpg,7,1153,188940,5,0,195826,1,526,192332
15,male,neutral,7000a.jpg,1,2392,204740,5,0,210388,5,0,206368
15,male,neutral,7705b.jpg,1,1837,218747,5,0,225033,5,0,220930
15,male,negative,9163b.jpg,7,2376,233931,5,0,239662,1,2628,238203
15,male,neutral,7010b.jpg,1,600,246783,5,0,254223,5,0,250203
15,male,neutral,7090b.jpg,1,958,261703,5,0,268785,5,0,264765
15,male,negative,3071b.jpg,7,3404,278710,5,0,283346,1,1512,280838
15,male,negative,3170a.jpg,9,514,290382,5,0,297908,1,230,294118
15,male,neutral,2036b.jpg,1,1248,305678,5,0,312469,5,0,308450
15,male,negative,3001a.jpg,7,2594,321585,5,0,327031,1,1742,324753
15,male,negative,3019a.jpg,5,0,333553,5,0,341758,5,0,337658
15,male,neutral,5390b.jpg,1,776,349057,5,0,356321,7,764,353065
15,male,negative,3059b.jpg,7,1814,364657,5,0,370883,1,226,367089
15,male,neutral,2850b.jpg,5,0,377405,5,0,385444,5,736,382161
15,male,negative,3016a.jpg,7,1434,393400,5,0,400006,1,282,396268
15,male,negative,3071a.jpg,7,1372,407900,5,0,414633,1,904,411452
15,male,neutral,7002a.jpg,1,1104,422260,5,0,429278,5,0,425176
15,male,neutral,5500b.jpg,1,1251,437052,5,0,443924,5,0,439821
15,male,negative,3110a.jpg,7,773,451219,5,0,458486,1,897,455363
15,male,neutral,7004b.jpg,1,579,465587,5,0,473132,5,0,469028
15,male,negative,3170a.jpg,9,898,480551,5,0,487693,1,486,484159
15,male,neutral,7009b.jpg,5,0,494215,5,0,502422,5,0,498318
15,male,negative,3400a.jpg,7,1863,510806,5,0,516983,1,275,513238
15,male,neutral,5870a.jpg,1,1061,524566,5,0,531544,9,3554,531078
15,male,neutral,7080b.jpg,1,1588,539654,5,0,546189,5,0,542086
15,male,negative,3062b.jpg,8,1379,554090,5,0,560751,1,847,557578
15,male,neutral,7175b.jpg,1,2864,570137,5,0,575396,5,0,571293
15,male,negative,9410a.jpg,7,1499,583417,5,0,589958,1,271,586209
15,male,negative,6230b.jpg,7,1538,598017,3,2602,607121,2,1662,602161
15,male,neutral,7034a.jpg,1,1304,612345,5,0,619164,5,0,615061
15,male,negative,6570a.jpg,5,0,625686,5,0,633809,1,575,630364
15,male,negative,3100a.jpg,6,2113,642444,5,0,648371,1,397,644748
15,male,neutral,5500a.jpg,1,1351,656244,5,0,663016,5,0,658913
15,male,neutral,7950b.jpg,1,1410,670948,5,0,677662,5,0,673558
15,male,negative,3150a.jpg,8,524,684707,5,0,692289,1,600,688803
15,male,negative,3001b.jpg,8,1236,700047,5,0,706851,1,2832,705663
15,male,neutral,7026b.jpg,1,634,714007,5,0,721413,8,638,718031
15,male,neutral,7550a.jpg,5,0,727934,5,0,735974,5,2116,734070
15,male,negative,8485b.jpg,7,2742,745238,5,0,750536,2,2730,749246
15,male,neutral,7038a.jpg,1,2044,759102,5,0,765179,5,0,761078
15,male,negative,6021a.jpg,7,979,772682,5,0,779809,1,1870,777658
15,male,negative,9414a.jpg,7,1063,787394,5,0,794371,1,2194,792545
15,male,neutral,2850a.jpg,1,588,801481,5,0,808932,8,656,805569
15,male,neutral,7006b.jpg,1,1203,816657,5,0,823577,5,0,819474
15,male,negative,3063a.jpg,7,1542,831641,5,0,838139,1,858,834977
15,male,neutral,7040b.jpg,1,1431,846092,5,0,852783,5,0,848681
15,male,negative,9570a.jpg,7,1722,861028,5,0,867346,1,582,863908
15,male,negative,3019b.jpg,8,592,874460,5,0,881907,1,1989,879876
15,male,neutral,7026a.jpg,1,647,889076,5,0,896469,9,1811,894260
15,male,neutral,7042a.jpg,1,2076,905067,5,0,911031,7,608,907619
15,male,negative,6570b.jpg,6,2119,919671,5,0,925592,1,499,922071
15,male,neutral,7002b.jpg,1,597,932711,5,0,940236,5,0,936134
15,male,negative,3150b.jpg,8,1192,947951,5,0,954799,1,876,951655
15,male,neutral,7010a.jpg,1,2189,963510,5,0,969444,5,0,965341
15,male,neutral,7705a.jpg,5,0,975966,5,0,984173,5,0,980069
15,male,negative,8485a.jpg,8,780,991474,5,0,998734,1,688,995402
15,male,negative,3063b.jpg,8,1482,1006738,5,0,1013296,1,766,1010042
15,male,neutral,5740a.jpg,1,2175,1021993,5,0,1027857,7,1980,1025817
15,male,neutral,7009a.jpg,1,3038,1037417,5,0,1042503,5,0,1038399
15,male,negative,3110b.jpg,7,705,1049729,5,0,1057064,1,373,1053417
15,male,neutral,7000b.jpg,1,907,1064493,5,0,1071776,5,0,1067670
15,male,negative,3170b.jpg,8,1450,1079748,5,0,1086337,1,415,1082732
15,male,neutral,7080b.jpg,1,2017,1094876,5,0,1100982,5,0,1096879
15,male,neutral,7175a.jpg,1,636,1108140,5,0,1115625,5,0,1111524
15,male,negative,3400a.jpg,8,2439,1124588,5,0,1130189,1,698,1126867
15,male,neutral,7006a.jpg,1,524,1137235,5,0,1144835,5,0,1140731
15,male,negative,6315a.jpg,8,1059,1152415,5,0,1159396,1,1423,1156799
15,male,negative,9300a.jpg,5,0,1165917,5,0,1174041,1,194,1170215
15,male,neutral,7493a.jpg,1,1156,1181718,5,0,1188684,5,0,1184582
15,male,negative,9410b.jpg,8,2103,1197310,5,0,1203247,1,427,1199654
15,male,negative,6021b.jpg,7,505,1210274,5,0,1217809,1,2093,1215882
15,male,neutral,7034b.jpg,1,567,1224898,5,0,1232519,5,0,1228417
15,male,negative,3100b.jpg,8,728,1239770,5,0,1247082,1,1404,1244466
15,male,neutral,2880a.jpg,1,3501,1257105,5,0,1261728,5,0,1257624
15,male,neutral,7042b.jpg,1,1480,1269729,5,0,1276289,6,652,1272921
15,male,negative,9163a.jpg,8,858,1283669,5,0,1290850,1,558,1287389
15,male,neutral,5870b.jpg,1,505,1297877,5,0,1305494,5,0,1301392
15,male,negative,3071b.jpg,8,531,1312548,5,0,1320057,1,295,1316332
15,male,neutral,7004a.jpg,1,1377,1327956,5,0,1334703,5,0,1330599
15,male,neutral,2880b.jpg,1,2068,1343292,5,0,1349347,5,0,1345244
15,male,negative,3016b.jpg,8,2058,1357927,5,0,1363909,1,839,1360728
15,male,neutral,5740b.jpg,1,2048,1372479,5,0,1378470,7,1700,1376151
15,male,neutral,7950a.jpg,1,2103,1387095,5,0,1393115,5,0,1389012
15,male,negative,3053a.jpg,7,1450,1401087,5,0,1407677,1,550,1404207
15,male,negative,3059a.jpg,7,1080,1415279,5,0,1422239,1,284,1418503
15,male,neutral,7038b.jpg,1,1289,1430050,5,0,1436884,5,0,1432780
15,male,negative,9414b.jpg,8,1372,1444778,5,0,1451445,1,1657,1449082
15,male,negative,6550a.jpg,7,1547,1459514,5,0,1466007,1,1359,1463346
15,male,negative,7090a.jpg,1,2848,1475377,5,0,1480653,5,0,1476549
16,female,negative,1525a.jpg,4,3977,33340,6,1868,39336,6,3986,37369
16,female,neutral,2036b.jpg,5,0,43992,5,0,52115,3,3299,51392
16,female,negative,9570b.jpg,8,1219,59856,2,3067,69744,3,2607,65264
16,female,negative,3400a.jpg,8,3065,76264,2,2201,83440,2,1733,78952
16,female,neutral,5390a.jpg,1,1807,89568,8,1960,97760,8,2043,93824
16,female,neutral,2880b.jpg,4,1966,104288,4,2610,112972,4,2906,109248
16,female,negative,6315b.jpg,7,1744,118628,3,1224,126148,3,2468,123372
16,female,negative,6230a.jpg,6,1550,132996,4,1382,140868,3,3210,138676
16,female,neutral,7493b.jpg,3,3363,149371,7,1028,155139,6,2687,152715
16,female,negative,3150a.jpg,7,1711,162347,2,999,169675,2,1459,166115
16,female,neutral,7040a.jpg,4,2629,177827,8,3833,187071,5,0,179218
16,female,negative,6550b.jpg,7,1479,191239,2,1303,199103,2,2819,196599
16,female,neutral,7000a.jpg,5,0,204322,8,1650,214095,8,1937,210359
16,female,neutral,7705b.jpg,1,1384,220351,8,2121,229191,6,3444,226431
16,female,negative,9163b.jpg,6,2412,236007,3,836,242471,3,2256,239871
16,female,neutral,7010b.jpg,1,3658,251815,9,3486,259683,6,2154,254331
16,female,neutral,7090b.jpg,1,2579,265298,9,587,271346,9,959,267698
16,female,negative,3071b.jpg,8,1297,278578,1,1682,287002,2,798,282098
16,female,negative,3170a.jpg,9,2496,294338,1,984,300866,1,3284,299146
16,female,neutral,2036b.jpg,1,2918,309322,9,2190,316634,8,2706,313130
16,female,negative,3001a.jpg,8,1556,322522,1,436,329442,1,2352,327338
16,female,negative,3019a.jpg,7,2542,338070,3,1902,345534,3,562,340110
16,female,neutral,5390b.jpg,4,2567,353390,8,1527,360390,6,1459,356302
16,female,negative,3059b.jpg,7,989,366374,3,2140,375565,3,521,369926
16,female,neutral,2850b.jpg,2,2427,382374,8,2778,390765,8,1079,385046
16,female,negative,3016a.jpg,7,2616,397125,2,1333,403881,2,1704,400233
16,female,negative,3071a.jpg,9,2563,411633,1,1251,418361,1,1959,415049
16,female,neutral,7002a.jpg,4,3681,427313,7,1585,433257,6,2893,430545
16,female,neutral,5500b.jpg,6,2087,440281,6,1383,447617,6,987,443201
16,female,negative,3110a.jpg,9,2629,455385,5,0,460796,1,1785,458561
16,female,neutral,7004b.jpg,4,3955,471273,7,3050,478473,6,1464,472801
16,female,negative,3170a.jpg,9,1187,483133,1,955,490941,1,1279,487245
16,female,neutral,7009b.jpg,5,0,496508,7,2784,507396,6,2028,502556
16,female,negative,3400a.jpg,8,2340,513476,1,1404,520580,2,816,515972
16,female,neutral,5870a.jpg,1,1858,527556,8,1554,535292,7,3318,533036
16,female,neutral,7080b.jpg,3,1904,542164,6,1204,549504,6,3012,547292
16,female,negative,3062b.jpg,9,1490,556312,1,1707,564568,1,1239,560080
16,female,neutral,7175b.jpg,5,0,569383,8,2862,580432,6,2863,576344
16,female,negative,9410a.jpg,6,2801,586896,3,2409,594544,4,2661,590776
16,female,negative,6230b.jpg,8,2071,600728,1,1319,608016,2,1091,603768
16,female,neutral,7034a.jpg,7,2037,615256,3,1664,622923,3,745,617984
16,female,negative,6570a.jpg,8,2158,629939,2,527,636347,2,642,632443
16,female,negative,3100a.jpg,6,1445,643787,4,949,651331,4,2353,648715
16,female,neutral,5500a.jpg,6,1323,658227,6,3107,668051,6,799,661723
16,female,neutral,7950b.jpg,1,2521,673987,5,0,679584,5,0,675486
16,female,negative,3150a.jpg,9,1548,687659,1,2668,696819,1,2344,692475
16,female,negative,3001b.jpg,9,1822,702495,1,1462,710175,1,1426,706119
16,female,neutral,7026b.jpg,2,3756,718991,9,1085,724359,7,1864,721119
16,female,neutral,7550a.jpg,2,1899,731695,6,2442,740278,6,406,734222
16,female,negative,8485b.jpg,8,1184,745542,1,1936,754334,2,2124,750502
16,female,neutral,7038a.jpg,5,0,758920,6,1767,768810,6,3467,766486
16,female,negative,6021a.jpg,8,1189,774754,1,949,782554,2,833,778418
16,female,negative,9414a.jpg,8,1539,789666,1,755,796922,2,687,792834
16,female,neutral,2850a.jpg,2,1057,803746,9,1074,811802,9,829,807538
16,female,neutral,7006b.jpg,2,2536,819786,8,1240,826530,6,1012,822282
16,female,negative,3063a.jpg,8,2358,834170,1,662,840514,2,730,836562
16,female,neutral,7040b.jpg,5,0,846374,4,612,855109,4,1193,851669
16,female,negative,9570a.jpg,7,1514,862533,3,706,869765,2,710,865749
16,female,negative,3019b.jpg,7,1784,877365,2,824,884445,2,500,880101
16,female,neutral,7026a.jpg,3,2374,892517,8,1396,899645,8,578,894805
16,female,neutral,7042a.jpg,3,1498,906269,9,1154,913965,7,1254,910045
16,female,negative,6570b.jpg,8,2164,921497,1,876,928249,2,416,923769
16,female,neutral,7002b.jpg,5,0,933895,6,1031,943049,6,1815,939809
16,female,negative,3150b.jpg,9,1237,949777,1,1085,957665,2,377,952937
16,female,neutral,7010a.jpg,3,3978,967080,6,947,972088,6,3238,970360
16,female,neutral,7705a.jpg,4,3337,981000,6,889,986592,6,1229,982912
16,female,negative,8485a.jpg,8,1651,993876,1,771,1001036,2,535,996780
16,female,negative,3063b.jpg,9,3065,1009852,1,1001,1015828,1,1301,1012108
16,female,neutral,5740a.jpg,1,2415,1023764,8,1047,1030436,8,1051,1026420
16,female,neutral,7009a.jpg,2,2230,1038140,8,1006,1044956,8,898,1040828
16,female,negative,3110b.jpg,8,916,1051388,2,892,1059404,2,696,1055188
16,female,neutral,7000b.jpg,2,2342,1067376,8,669,1073743,8,538,1069592
16,female,negative,3170b.jpg,9,979,1080575,1,2155,1089791,1,2447,1086063
16,female,neutral,7080b.jpg,4,2681,1096839,6,1114,1103311,6,3861,1102039
16,female,neutral,7175a.jpg,4,3280,1111999,7,928,1117687,6,1492,1114231
16,female,negative,3400a.jpg,5,0,1123281,1,1866,1133187,1,2018,1129319
16,female,neutral,7006a.jpg,4,1920,1139763,7,1520,1147403,6,1140,1143003
16,female,negative,6315a.jpg,8,2798,1155203,1,932,1161443,1,1268,1157755
16,female,negative,9300a.jpg,7,3818,1170851,2,1834,1176907,1,1310,1172363
16,female,neutral,7493a.jpg,5,0,1181595,6,1636,1191354,6,2726,1188419
16,female,negative,9410b.jpg,9,1738,1197978,1,1714,1205994,1,2398,1202658
16,female,negative,6021b.jpg,8,1744,1212546,1,940,1219782,2,776,1215598
16,female,neutral,7034b.jpg,6,2162,1227526,4,755,1234158,4,518,1229902
16,female,negative,3100b.jpg,8,1449,1241374,2,993,1248958,2,605,1244550
16,female,neutral,2880a.jpg,5,0,1254487,4,1812,1264422,4,2580,1261166
16,female,neutral,7042b.jpg,4,3642,1272774,6,1402,1278574,6,3022,1276174
16,female,negative,9163a.jpg,8,996,1284690,1,1580,1293314,2,832,1288546
16,female,neutral,5870b.jpg,1,1601,1299857,9,1145,1307441,9,2717,1304993
16,female,negative,3071b.jpg,9,2847,1315665,1,687,1321545,1,2147,1318985
16,female,neutral,7004a.jpg,3,2894,1330273,6,606,1336025,6,2250,1333649
16,female,neutral,2880b.jpg,7,1740,1343681,2,572,1350553,3,704,1346665
16,female,negative,3016b.jpg,8,3390,1359893,2,663,1365269,2,1010,1361533
16,female,neutral,5740b.jpg,1,3146,1374277,9,1314,1380485,9,950,1376101
16,female,neutral,7950a.jpg,1,2872,1388565,7,2935,1396749,5,0,1389713
16,female,negative,3053a.jpg,9,699,1401037,1,771,1409149,2,855,1405213
16,female,negative,3059a.jpg,9,745,1415645,1,936,1423876,1,2140,1421060
16,female,neutral,7038b.jpg,6,1438,1430900,6,1634,1439136,5,3846,1437328
16,female,negative,9414b.jpg,8,1160,1445184,1,584,1452648,2,1212,1449256
16,female,negative,6550a.jpg,9,1758,1460344,1,943,1467568,1,443,1463048
16,female,negative,7090a.jpg,1,989,1474136,9,1453,1482640,7,2753,1479920
17,female,negative,1525a.jpg,2,3322,109984,3,1898,116600,3,2510,113192
17,female,neutral,2036b.jpg,1,1304,122528,9,2184,131448,9,2244,127488
17,female,negative,9570b.jpg,7,1806,137592,4,1998,145824,2,2026,141832
17,female,negative,3400a.jpg,7,964,151312,2,1623,160072,2,1304,155672
17,female,neutral,5390a.jpg,1,1408,166384,9,2708,175724,6,1852,170848
17,female,neutral,2880b.jpg,6,1418,180956,6,1362,188940,4,1214,184772
17,female,negative,6315b.jpg,7,1448,195548,2,1550,203756,2,1102,199284
17,female,negative,6230a.jpg,8,1324,210052,2,1404,218172,1,1632,214380
17,female,neutral,7493b.jpg,1,1666,224956,9,3737,235067,8,2285,229595
17,female,negative,3150a.jpg,7,1383,239235,4,2071,247963,2,1355,243227
17,female,neutral,7040a.jpg,1,1641,254055,9,1858,262311,6,2358,258791
17,female,negative,6550b.jpg,8,1464,268439,2,1128,276143,2,1220,272215
17,female,neutral,7000a.jpg,1,1366,282903,9,1590,291167,6,1858,287415
17,female,neutral,7705b.jpg,1,2036,298135,9,1972,306111,6,1328,301447
17,female,negative,9163b.jpg,7,1898,312559,2,1667,320367,1,2615,317295
17,female,neutral,7010b.jpg,1,2345,327567,9,3701,336963,6,2049,331291
17,female,neutral,7090b.jpg,2,1563,341347,9,2906,350730,6,1599,345403
17,female,negative,3071b.jpg,7,1808,356154,4,2320,364706,1,1372,359738
17,female,negative,3170a.jpg,7,1310,370218,4,1799,378746,1,1234,374162
17,female,neutral,2036b.jpg,1,2661,386130,9,1469,392978,6,2793,390282
17,female,negative,3001a.jpg,8,1187,399218,3,1815,407886,1,1347,403398
17,female,negative,3019a.jpg,5,2021,414614,6,1237,421870,4,1177,417790
17,female,neutral,5390b.jpg,1,2587,429742,9,2339,437534,6,1791,432966
17,female,negative,3059b.jpg,6,1218,442934,3,970,450726,1,1134,446870
17,female,neutral,2850b.jpg,3,3096,459374,9,1015,465333,6,1907,462205
17,female,negative,3016a.jpg,6,1921,472761,7,721,479601,3,1853,476713
17,female,negative,3071a.jpg,9,2159,487561,2,1207,494649,1,395,489817
17,female,neutral,7002a.jpg,1,1861,501825,9,1446,509449,6,3098,507081
17,female,neutral,5500b.jpg,1,1276,515801,9,3372,525937,5,0,518545
17,female,negative,3110a.jpg,6,1802,530889,7,890,538017,3,1750,534857
17,female,neutral,7004b.jpg,1,1592,545241,8,1748,553437,5,0,547669
17,female,negative,3170a.jpg,7,1722,559933,3,1850,568100,2,1494,563725
17,female,neutral,7009b.jpg,1,1832,574604,9,1832,582644,6,2292,579084
17,female,negative,3400a.jpg,7,1486,588820,3,1982,597356,1,2658,594012
17,female,neutral,5870a.jpg,1,1436,603332,9,1244,611180,8,1176,607092
17,female,neutral,7080b.jpg,1,2838,619296,9,1494,625992,6,2154,622632
17,female,negative,3062b.jpg,8,1253,632272,2,1101,640160,1,1473,636512
17,female,neutral,7175b.jpg,1,1659,647240,9,2067,655688,5,0,649601
17,female,negative,9410a.jpg,7,1833,661976,2,1491,669736,2,1525,665688
17,female,negative,6230b.jpg,9,1117,675888,2,2284,685095,1,1369,680160
17,female,neutral,7034a.jpg,2,1058,690391,7,702,698075,4,1434,694787
17,female,negative,6570a.jpg,6,1132,705027,2,1084,713019,3,1440,709355
17,female,negative,3100a.jpg,3,1770,720227,7,2259,728819,4,2126,724603
17,female,neutral,5500a.jpg,1,1278,734363,9,2694,743819,5,1866,738971
17,female,neutral,7950b.jpg,1,652,748299,9,1241,756995,6,536,752267
17,female,negative,3150a.jpg,7,1071,763347,2,1278,771655,2,1484,767779
17,female,negative,3001b.jpg,7,2047,778951,3,1775,786719,2,2627,783551
17,female,neutral,7026b.jpg,1,1917,793383,9,1988,801494,8,1049,796535
17,female,neutral,7550a.jpg,1,1874,807902,7,2083,816150,7,1815,811862
17,female,negative,8485b.jpg,7,2017,822606,3,361,828990,2,381,824990
17,female,neutral,7038a.jpg,2,1443,836594,7,2012,845266,6,2439,841610
17,female,negative,6021a.jpg,7,1854,851634,2,1096,858978,1,1451,855250
17,female,negative,9414a.jpg,7,2922,867330,2,274,872722,2,1110,869538
17,female,neutral,2850a.jpg,2,2040,881010,8,560,887570,7,1492,884482
17,female,neutral,7006b.jpg,1,654,894186,9,2015,903586,6,1995,899546
17,female,negative,3063a.jpg,6,1473,909566,5,0,916133,2,2448,914561
17,female,neutral,7040b.jpg,2,1398,924053,4,2078,932773,4,994,927669
17,female,negative,9570a.jpg,7,1996,939213,3,748,946005,3,1968,943205
17,female,negative,3019b.jpg,7,1290,953069,4,813,960693,3,1694,957493
17,female,neutral,7026a.jpg,1,1502,967909,9,614,975061,8,778,971205
17,female,neutral,7042a.jpg,1,1108,982077,9,1072,990081,5,0,984989
17,female,negative,6570b.jpg,6,2118,997649,2,879,1004449,2,2050,1001601
17,female,neutral,7002b.jpg,1,1253,1011345,9,1413,1019545,5,0,1014112
17,female,negative,3150b.jpg,6,2498,1027152,2,1130,1033824,2,2886,1031560
17,female,neutral,7010a.jpg,1,1280,1040496,9,2848,1050104,6,2220,1045456
17,female,neutral,7705a.jpg,1,1406,1055184,9,896,1062780,5,0,1057798
17,female,negative,8485a.jpg,6,1926,1070332,1,1678,1078124,2,1338,1073764
17,female,negative,3063b.jpg,6,1724,1084692,3,548,1091556,2,1456,1088444
17,female,neutral,5740a.jpg,1,1306,1098836,9,626,1106196,9,1110,1102660
17,female,neutral,7009a.jpg,1,2129,1114220,9,1945,1122076,6,765,1116876
17,female,negative,3110b.jpg,5,0,1126653,6,1171,1135864,3,1875,1132548
17,female,neutral,7000b.jpg,1,2720,1143935,9,424,1149679,5,0,1145235
17,female,negative,3170b.jpg,6,2094,1157871,2,934,1164751,2,1786,1161583
17,female,neutral,7080b.jpg,1,756,1171095,9,2181,1180559,6,1529,1175887
17,female,neutral,7175a.jpg,2,1483,1186383,9,650,1193671,5,0,1188920
17,female,negative,3400a.jpg,6,1406,1200951,3,698,1208283,2,1226,1204791
17,female,neutral,7006a.jpg,1,696,1214803,9,904,1223051,6,476,1218603
17,female,negative,6315a.jpg,6,1814,1230483,2,742,1237451,2,450,1233139
17,female,negative,9300a.jpg,3,1532,1244763,7,1228,1252499,4,1360,1248611
17,female,neutral,7493a.jpg,1,1738,1259530,8,778,1266610,5,0,1261812
17,female,negative,9410b.jpg,7,2724,1275078,2,876,1281270,1,1396,1277770
17,female,negative,6021b.jpg,4,2298,1289214,2,1522,1296478,2,1566,1292502
17,female,neutral,7034b.jpg,2,1600,1303078,6,768,1310286,4,1628,1307126
17,female,negative,3100b.jpg,5,0,1316040,3,1135,1325214,3,1675,1321734
17,female,neutral,2880a.jpg,2,1381,1331982,6,1517,1340158,4,1793,1336414
17,female,neutral,7042b.jpg,2,2211,1347374,6,2831,1356114,5,0,1349183
17,female,negative,9163a.jpg,6,1418,1361226,2,1898,1369746,4,1502,1365330
17,female,neutral,5870b.jpg,1,1439,1375809,9,463,1382873,8,555,1378945
17,female,negative,3071b.jpg,8,1117,1390049,1,918,1397890,1,793,1393745
17,female,neutral,7004a.jpg,1,1619,1405113,9,1268,1412801,6,3320,1410833
17,female,neutral,2880b.jpg,2,1490,1419545,5,0,1426095,4,1962,1424037
17,female,negative,3016b.jpg,6,2860,1435477,3,724,1441381,3,1888,1438525
17,female,neutral,5740b.jpg,1,490,1447669,9,978,1456197,8,758,1451957
17,female,neutral,7950a.jpg,1,1136,1462877,9,1001,1470781,5,0,1465761
17,female,negative,3053a.jpg,6,2447,1478749,6,1567,1485909,4,2363,1482685
17,female,negative,3059a.jpg,7,764,1491628,3,1648,1500552,2,432,1495316
17,female,neutral,7038b.jpg,1,1286,1506712,7,878,1514344,6,1282,1510728
17,female,negative,9414b.jpg,7,1636,1521624,2,2509,1530536,2,1480,1525488
17,female,negative,6550a.jpg,6,1555,1536104,5,3219,1545808,4,1303,1539872
17,female,negative,7090a.jpg,1,793,1549904,9,881,1558032,7,629,1553760
18,female,negative,1525a.jpg,7,4138,41660,5,3373,49001,3,3307,44849
18,female,neutral,2036b.jpg,1,2810,54961,8,127,60317,7,4013,60184
18,female,negative,9570b.jpg,6,3016,69728,4,2072,76824,3,2292,73024
18,female,negative,3400a.jpg,7,3546,84820,3,1794,91108,2,1694,86988
18,female,neutral,5390a.jpg,1,1920,97756,9,123,103999,5,0,99856
18,female,neutral,2880b.jpg,3,2886,113284,7,1926,120364,7,1714,116132
18,female,negative,6315b.jpg,6,3669,128628,5,0,132999,3,2753,131732
18,female,negative,6230a.jpg,5,0,139521,3,2096,149740,3,3260,146884
18,female,neutral,7493b.jpg,2,1582,155748,8,3530,165736,8,2054,160240
18,female,negative,3150a.jpg,6,2183,170911,4,2432,179200,2,1643,174391
18,female,neutral,7040a.jpg,2,2469,185759,5,0,191330,8,1969,189279
18,female,negative,6550b.jpg,5,0,197852,4,2277,208231,4,2559,204431
18,female,neutral,7000a.jpg,3,3743,216223,7,3232,223815,7,1619,218119
18,female,neutral,7705b.jpg,6,3222,230331,5,0,235226,5,0,231129
18,female,negative,9163b.jpg,6,2489,244243,4,3148,253003,3,2661,248435
18,female,neutral,7010b.jpg,7,3941,260323,8,1797,266219,7,2865,263267
18,female,neutral,7090b.jpg,3,2987,273931,8,1707,280691,8,2119,277083
18,female,negative,3071b.jpg,6,2401,287907,4,2568,296114,3,2796,292322
18,female,negative,3170a.jpg,7,2714,302782,2,1931,310038,2,3175,307262
18,female,neutral,2036b.jpg,2,2553,317182,7,2985,325654,8,2381,321030
18,female,negative,3001a.jpg,7,3583,332774,3,3583,340814,4,2899,336110
18,female,negative,3019a.jpg,5,0,343753,5,0,351876,4,2467,350318
18,female,neutral,5390b.jpg,3,3288,361686,7,3192,369630,7,2308,364726
18,female,negative,3059b.jpg,7,2870,375830,3,2426,383426,2,2422,379402
18,female,neutral,2850b.jpg,5,0,387522,4,1429,397074,4,3336,394961
18,female,negative,3016a.jpg,6,2162,404329,3,3579,413785,3,2470,408657
18,female,negative,3071a.jpg,6,2681,419409,4,1249,426017,3,2205,422953
18,female,neutral,7002a.jpg,1,2727,434017,9,2207,441537,7,3539,438849
18,female,neutral,5500b.jpg,2,1437,447289,7,3961,457853,5,0,449872
18,female,negative,3110a.jpg,6,2903,463317,4,1925,470445,4,1650,466149
18,female,neutral,7004b.jpg,2,2139,477181,7,1292,484437,7,1703,480765
18,female,negative,3170a.jpg,7,1846,491517,3,2583,500293,2,1322,495013
18,female,neutral,7009b.jpg,2,3893,508125,8,1292,513564,8,3385,511637
18,female,negative,3400a.jpg,3,3266,522060,4,1662,528496,3,3370,526184
18,female,neutral,5870a.jpg,1,2116,535472,9,1940,543336,9,2432,539808
18,female,neutral,7080b.jpg,2,3138,551056,8,2392,558416,8,1765,553768
18,female,negative,3062b.jpg,7,2046,564592,2,2270,572856,2,2114,568680
18,female,neutral,7175b.jpg,5,0,577108,7,1681,586912,7,2594,583800
18,female,negative,9410a.jpg,7,3931,595684,3,2219,602012,2,1595,597368
18,female,negative,6230b.jpg,5,0,606315,5,0,614438,4,1911,612324
18,female,neutral,7034a.jpg,2,3564,624524,7,3115,632115,7,3503,628483
18,female,negative,6570a.jpg,5,0,635522,4,2446,646091,4,2679,642299
18,female,negative,3100a.jpg,6,2332,652499,4,1788,659995,4,1680,655867
18,female,neutral,5500a.jpg,3,2915,667644,7,2229,675127,7,1881,670691
18,female,neutral,7950b.jpg,2,3247,682671,7,3047,690511,7,1155,684599
18,female,negative,3150a.jpg,6,2549,696535,3,2222,704247,3,1513,699519
18,female,negative,3001b.jpg,6,2436,710983,3,124,716711,4,3128,715695
18,female,neutral,7026b.jpg,2,1730,724839,8,1874,733023,8,2926,730055
18,female,neutral,7550a.jpg,2,2712,740383,8,636,746347,8,1635,743326
18,female,negative,8485b.jpg,6,2681,754914,4,1786,762058,4,1229,757482
18,female,neutral,7038a.jpg,3,3304,770098,6,2576,777410,6,1884,772698
18,female,negative,6021a.jpg,6,2734,784090,5,0,789396,4,1906,787282
18,female,negative,9414a.jpg,6,2932,798850,5,0,803958,4,1792,801730
18,female,neutral,2850a.jpg,2,2090,812570,8,1846,820366,8,1986,816486
18,female,neutral,7006b.jpg,2,2581,827622,8,533,833614,8,857,829918
18,female,negative,3063a.jpg,6,2699,842302,4,1147,848790,4,1535,845158
18,female,neutral,7040b.jpg,2,2576,856741,8,1056,863261,7,2100,860285
18,female,negative,9570a.jpg,6,2462,871189,3,1150,877917,3,698,873445
18,female,negative,3019b.jpg,6,3009,886297,4,1329,892657,4,2413,889721
18,female,neutral,7026a.jpg,2,2311,900161,8,1303,907193,8,923,902793
18,female,neutral,7042a.jpg,2,1917,914329,8,2415,922929,8,1721,918153
18,female,negative,6570b.jpg,6,3649,930689,4,1041,936121,4,2373,933433
18,female,neutral,7002b.jpg,2,2479,944081,8,1135,950777,8,2139,947761
18,female,negative,3150b.jpg,6,2397,958561,4,2721,966925,3,2181,962365
18,female,neutral,7010a.jpg,2,1631,972357,8,2001,980829,8,1267,976013
18,female,neutral,7705a.jpg,2,2458,987812,8,1362,994756,8,3134,992508
18,female,negative,8485a.jpg,6,2864,1002780,4,1544,1009500,4,1748,1005684
18,female,negative,3063b.jpg,6,1982,1016460,4,929,1023508,3,538,1019036
18,female,neutral,5740a.jpg,2,1578,1030684,8,1474,1038620,7,806,1033932
18,female,neutral,7009a.jpg,2,1436,1045104,8,1396,1053104,8,1560,1049248
18,female,negative,3110b.jpg,6,2130,1060360,4,3298,1069568,3,1294,1063544
18,female,neutral,7000b.jpg,2,2785,1075576,8,1721,1082552,8,2997,1079808
18,female,negative,3170b.jpg,7,2895,1090248,3,1734,1097127,2,2003,1093376
18,female,neutral,7080b.jpg,2,1588,1103503,8,2080,1112035,7,904,1106839
18,female,neutral,7175a.jpg,2,1950,1118427,8,936,1125515,7,3738,1124235
18,female,negative,3400a.jpg,6,2850,1133955,4,898,1140043,3,1318,1136443
18,female,neutral,7006a.jpg,2,2520,1148187,7,2984,1156691,8,3172,1152859
18,female,negative,6315a.jpg,6,3550,1163779,4,2088,1170419,4,1930,1166179
18,female,negative,9300a.jpg,5,0,1174857,6,3342,1186323,4,1816,1180771
18,female,neutral,7493a.jpg,2,1497,1190999,8,921,1198463,8,3109,1196631
18,female,negative,9410b.jpg,6,2247,1206311,4,1590,1213694,3,1002,1209086
18,female,negative,6021b.jpg,5,0,1218626,4,1401,1228150,4,1329,1224054
18,female,neutral,7034b.jpg,4,2919,1236190,7,2295,1243606,7,1635,1238926
18,female,negative,3100b.jpg,7,3197,1251030,3,1202,1257138,2,1857,1253710
18,female,neutral,2880a.jpg,5,0,1262461,4,2625,1273210,4,2459,1269018
18,female,neutral,7042b.jpg,2,2767,1279874,8,1732,1286945,6,2203,1283394
18,female,negative,9163a.jpg,5,0,1291735,4,3376,1303234,4,2241,1298074
18,female,neutral,5870b.jpg,3,2494,1308874,5,0,1314420,6,2274,1312674
18,female,negative,3071b.jpg,6,2179,1323121,4,1643,1330625,3,3723,1328685
18,female,neutral,7004a.jpg,2,2605,1338109,8,1198,1344741,8,1673,1341197
18,female,neutral,2880b.jpg,5,0,1350065,4,3656,1361845,4,2504,1356669
18,female,negative,3016b.jpg,6,3062,1367773,4,823,1373573,4,643,1369373
18,female,neutral,5740b.jpg,2,3261,1382533,8,941,1388253,8,1481,1384773
18,female,neutral,7950a.jpg,2,1955,1395789,8,899,1402773,8,2023,1399877
18,female,negative,3053a.jpg,6,2381,1410777,4,573,1417009,3,2913,1415329
18,female,negative,3059a.jpg,7,3347,1426305,4,2964,1433961,4,3056,1430033
18,female,neutral,7038b.jpg,5,0,1437519,7,2045,1447688,6,3229,1444848
18,female,negative,9414b.jpg,6,1579,1453744,4,1108,1461312,4,1544,1457728
18,female,negative,6550a.jpg,6,3962,1470688,4,1186,1475952,4,2442,1473188
18,female,negative,7090a.jpg,2,1476,1482764,8,620,1489948,8,1632,1486940
19,female,negative,1525a.jpg,5,0,28611,5,0,36668,1,2476,35124
19,female,neutral,2036b.jpg,1,1638,44828,2,1743,52972,9,2570,49780
19,female,negative,9570b.jpg,7,2061,59812,1,2708,68563,1,3000,64771
19,female,negative,3400a.jpg,6,3215,75595,1,2079,82499,3,3275,79675
19,female,neutral,5390a.jpg,1,2461,89403,8,2894,97875,7,2194,93155
19,female,neutral,2880b.jpg,7,1960,103463,2,1096,110639,2,1380,106903
19,female,negative,6315b.jpg,7,1974,118039,1,1750,125855,3,3226,123311
19,female,negative,6230a.jpg,9,2140,132767,5,0,138667,2,3696,138343
19,female,neutral,7493b.jpg,1,2570,147759,9,3107,156335,8,2254,151463
19,female,negative,3150a.jpg,7,1489,161239,5,0,167790,2,2501,166271
19,female,neutral,7040a.jpg,2,1578,175890,9,2850,185282,5,0,178332
19,female,negative,6550b.jpg,6,2317,191274,1,1965,198962,2,2313,195290
19,female,neutral,7000a.jpg,1,1883,205402,9,2971,214530,8,3207,210746
19,female,neutral,7705b.jpg,1,1625,219706,9,1825,227946,8,1757,223858
19,female,negative,9163b.jpg,7,2399,235042,2,1648,242330,3,820,237482
19,female,neutral,7010b.jpg,1,1646,248850,9,2930,258174,8,1302,252526
19,female,neutral,7090b.jpg,1,2672,264438,9,1240,271046,9,1676,267462
19,female,negative,3071b.jpg,8,1694,278022,5,0,284368,2,1602,281950
19,female,negative,3170a.jpg,6,2635,293525,5,0,298929,3,2231,297141
19,female,neutral,2036b.jpg,1,1002,306453,7,3226,316717,8,3206,312677
19,female,negative,3001a.jpg,6,2248,322261,5,0,328053,2,2464,326497
19,female,negative,3019a.jpg,6,2026,336601,6,2538,345153,4,2750,341345
19,female,neutral,5390b.jpg,1,1128,350265,5,0,357176,9,2876,356033
19,female,negative,3059b.jpg,7,1823,365521,6,1815,373553,2,1739,369457
19,female,neutral,2850b.jpg,1,1077,379337,7,877,387177,8,2129,384409
19,female,negative,3016a.jpg,6,2859,395681,6,3014,403876,4,1403,398245
19,female,negative,3071a.jpg,6,2476,409860,7,1101,416524,2,664,412068
19,female,neutral,7002a.jpg,1,1403,423348,7,3315,433300,6,3639,429604
19,female,neutral,5500b.jpg,1,881,437388,9,1657,446204,8,1389,441916
19,female,negative,3110a.jpg,7,1807,452876,7,1735,460844,2,1491,456580
19,female,neutral,7004b.jpg,1,3965,469596,9,1809,475480,8,2233,471884
19,female,negative,3170a.jpg,6,2200,482392,6,1448,489680,3,2132,486344
19,female,neutral,7009b.jpg,1,966,495720,9,1726,504520,7,3610,502384
19,female,negative,3400a.jpg,7,2220,511536,6,1739,519095,3,1528,514864
19,female,neutral,5870a.jpg,1,1937,525815,5,0,531918,9,2909,530807
19,female,neutral,7080b.jpg,1,1743,540183,7,2468,548947,7,2180,544639
19,female,negative,3062b.jpg,7,1578,554579,6,1034,562075,2,606,557627
19,female,neutral,7175b.jpg,1,1560,569123,8,984,576587,6,1468,573051
19,female,negative,9410a.jpg,8,2342,584467,2,2558,592723,4,1834,587979
19,female,negative,6230b.jpg,9,2061,598747,1,1645,606371,2,1729,602435
19,female,neutral,7034a.jpg,2,1587,612835,7,2983,622271,5,3715,618983
19,female,negative,6570a.jpg,8,1765,627575,3,2324,636174,4,3193,633023
19,female,negative,3100a.jpg,6,2242,642614,4,2602,651014,2,2278,646670
19,female,neutral,5500a.jpg,1,2792,657726,9,2353,665326,7,2277,661230
19,female,neutral,7950b.jpg,1,1183,670678,9,3047,680582,7,3219,676734
19,female,negative,3150a.jpg,7,1553,685610,5,0,692097,3,2701,690778
19,female,negative,3001b.jpg,7,2127,700746,3,1783,708442,3,1915,704554
19,female,neutral,7026b.jpg,1,1629,714810,9,1886,723106,8,2490,719690
19,female,neutral,7550a.jpg,2,2492,730234,8,1180,736962,8,2568,734330
19,female,negative,8485b.jpg,8,1850,744154,4,2209,752553,4,2134,748458
19,female,neutral,7038a.jpg,1,1311,758177,9,3363,768269,8,2331,763217
19,female,negative,6021a.jpg,8,841,772269,2,2090,781557,4,990,776437
19,female,negative,9414a.jpg,8,2472,788461,2,1232,795261,3,1580,791589
19,female,neutral,2850a.jpg,1,998,801549,9,2214,810805,9,1370,805941
19,female,neutral,7006b.jpg,1,620,815733,9,2572,825725,5,0,819133
19,female,negative,3063a.jpg,5,0,829675,4,1131,838845,3,1962,835657
19,female,neutral,7040b.jpg,1,2237,846473,8,2717,854993,5,0,848256
19,female,negative,9570a.jpg,5,0,858798,4,1604,868520,5,0,862818
19,female,negative,3019b.jpg,7,2077,875520,4,1797,883280,2,545,878008
19,female,neutral,7026a.jpg,1,1299,889304,9,3787,899832,8,1263,893288
19,female,neutral,7042a.jpg,6,1433,904000,9,2749,913356,7,2941,909528
19,female,negative,6570b.jpg,8,2483,919612,1,1004,926172,2,2176,923324
19,female,neutral,7002b.jpg,1,1618,933308,5,0,939730,7,2638,938348
19,female,negative,3150b.jpg,7,2840,949092,5,2272,956564,3,2412,952684
19,female,neutral,7010a.jpg,1,1382,962196,9,2229,971083,7,1450,966284
19,female,neutral,7705a.jpg,1,1524,976900,5,0,983415,6,2409,981804
19,female,negative,8485a.jpg,8,1470,991407,2,1838,999815,3,1938,995895
19,female,negative,3063b.jpg,6,1452,1005951,4,716,1013255,1,1320,1009839
19,female,neutral,5740a.jpg,1,762,1019823,9,2666,1029767,8,2646,1025727
19,female,neutral,7009a.jpg,1,2200,1035823,9,1873,1043535,6,1653,1039295
19,female,negative,3110b.jpg,7,1879,1050063,4,304,1056591,2,979,1053183
19,female,neutral,7000b.jpg,1,606,1063419,9,1838,1072691,7,3346,1070179
19,female,negative,3170b.jpg,6,2380,1079755,5,0,1085414,3,728,1082123
19,female,neutral,7080b.jpg,1,915,1092851,9,1778,1101754,8,1126,1097082
19,female,neutral,7175a.jpg,1,1384,1107882,9,1640,1116178,6,924,1111442
19,female,negative,3400a.jpg,6,1654,1122714,4,810,1129910,3,274,1125354
19,female,neutral,7006a.jpg,1,1088,1136710,9,1777,1145438,7,2244,1141886
19,female,negative,6315a.jpg,8,1391,1151574,2,639,1158862,4,2251,1156454
19,female,negative,9300a.jpg,3,2197,1166942,5,2085,1174870,3,1841,1170606
19,female,neutral,7493a.jpg,3,2779,1182086,6,3051,1190398,7,2511,1185838
19,female,negative,9410b.jpg,8,1865,1195734,3,1998,1203906,3,1669,1199558
19,female,negative,6021b.jpg,6,2131,1210561,2,1315,1217785,3,2879,1215329
19,female,neutral,7034b.jpg,3,3225,1226217,8,3729,1234761,6,2981,1229993
19,female,negative,3100b.jpg,6,983,1238537,4,1351,1246945,3,1403,1242977
19,female,neutral,2880a.jpg,6,725,1252841,3,2270,1262425,4,2505,1258641
19,female,neutral,7042b.jpg,3,1628,1268305,9,592,1275309,7,2480,1273177
19,female,negative,9163a.jpg,8,2174,1283413,2,2294,1291573,2,2698,1287957
19,female,neutral,5870b.jpg,1,3980,1299781,9,2084,1305925,9,3320,1303141
19,female,negative,3071b.jpg,6,1466,1311829,4,2435,1320837,2,1262,1315645
19,female,neutral,7004a.jpg,1,1840,1326764,9,1008,1333972,7,2140,1331084
19,female,neutral,2880b.jpg,7,1606,1341092,2,1194,1348720,3,1330,1344836
19,female,negative,3016b.jpg,6,2424,1356472,4,1008,1363096,4,1788,1359856
19,female,neutral,5740b.jpg,1,1526,1370136,9,310,1376960,9,1266,1373896
19,female,neutral,7950a.jpg,3,2781,1385952,9,1277,1392488,7,2833,1390024
19,female,negative,3053a.jpg,6,2595,1400328,6,1379,1407152,2,1807,1403560
19,female,negative,3059a.jpg,7,1457,1413752,6,2329,1422664,3,1805,1418120
19,female,neutral,7038b.jpg,1,1595,1428452,9,1602,1436499,9,1903,1432780
19,female,negative,9414b.jpg,8,2137,1443555,2,817,1450275,2,1565,1447003
19,female,negative,6550a.jpg,8,1687,1457667,1,639,1464659,2,1371,1461371
19,female,negative,7090a.jpg,1,3725,1474267,9,1661,1480243,8,2050,1476612
2,female,negative,1525a.jpg,7,3514,38834,1,1474,44834,1,2214,41554
2,female,neutral,2036b.jpg,1,2943,54826,1,1431,61354,1,1619,57522
2,female,negative,9570b.jpg,6,2747,71194,1,1387,77874,1,1303,73770
2,female,negative,3400a.jpg,7,1888,86898,1,1224,94274,1,972,90002
2,female,neutral,5390a.jpg,1,1456,103030,1,1913,111526,1,1013,106606
2,female,neutral,2880b.jpg,5,0,118137,1,127,126304,1,2400,124557
2,female,negative,6315b.jpg,8,2777,137477,1,1801,144541,1,1197,139917
2,female,negative,6230a.jpg,8,2165,153429,1,1478,160781,1,2345,157629
2,female,neutral,7493b.jpg,1,1722,169549,1,2462,178329,1,1846,173693
2,female,negative,3150a.jpg,5,1555,185945,1,2011,194441,1,991,189401
2,female,neutral,7040a.jpg,1,2119,203073,1,2583,211577,1,2523,207497
2,female,negative,6550b.jpg,7,1228,218745,1,1700,227257,1,1152,222689
2,female,neutral,7000a.jpg,1,3407,237488,1,2520,244640,1,1693,239793
2,female,neutral,7705b.jpg,3,3512,254156,1,1144,259828,1,1716,256380
2,female,negative,9163b.jpg,8,3557,270764,1,1965,277212,1,2057,273284
2,female,neutral,7010b.jpg,4,2537,286308,1,2481,294372,,0,0
2,female,neutral,7090b.jpg,1,2043,302460,1,1115,309572,1,1055,305492
2,female,negative,3071b.jpg,6,1895,318876,1,1475,326496,1,1567,322568
2,female,negative,3170a.jpg,7,1864,335408,1,1303,342887,1,1396,338960
2,female,neutral,2036b.jpg,1,2164,352271,1,793,359007,1,1096,355287
2,female,negative,3001a.jpg,7,1693,368431,1,2358,377135,1,1386,372143
2,female,negative,3019a.jpg,5,0,383301,,0,0,1,2229,389631
2,female,neutral,5390b.jpg,1,1607,401555,1,1303,409291,1,2491,406459
2,female,negative,3059b.jpg,7,2092,418603,1,1212,425763,1,1448,421979
2,female,neutral,2850b.jpg,2,3793,436867,1,1529,442643,1,1485,438579
2,female,negative,3016a.jpg,6,1973,451611,1,2533,460211,1,1161,454819
2,female,negative,3071a.jpg,6,3137,469338,1,1397,475638,1,1429,471650
2,female,neutral,7002a.jpg,1,1969,484734,,0,0,1,838,487622
2,female,neutral,5500b.jpg,3,4478,503806,,0,0,1,3866,507214
2,female,negative,3110a.jpg,8,3483,519374,1,1091,525022,1,1351,521262
2,female,neutral,7004b.jpg,1,1951,534406,,0,0,1,1283,537758
2,female,negative,3170a.jpg,7,3360,552378,1,1184,558242,1,1444,554482
2,female,neutral,7009b.jpg,1,1397,566978,,0,0,1,1457,571058
2,female,negative,3400a.jpg,6,2009,584154,1,2184,592369,1,1620,587785
2,female,neutral,5870a.jpg,3,2421,601129,,0,0,1,921,603649
2,female,neutral,7080b.jpg,2,2806,618077,,0,0,,0,0
2,female,negative,3062b.jpg,8,2407,634325,1,1183,641141,1,627,636565
2,female,neutral,7175b.jpg,2,2779,651261,,0,0,,0,0
2,female,negative,9410a.jpg,8,3589,668717,1,1525,674693,1,1881,671029
2,female,negative,6230b.jpg,7,2065,683757,1,1157,690889,1,1060,686772
2,female,neutral,7034a.jpg,3,1618,699873,,0,0,,0,0
2,female,negative,6570a.jpg,8,1586,716488,1,1618,724560,1,1646,720568
2,female,negative,3100a.jpg,7,2303,733768,1,1911,741416,1,1995,737480
2,female,neutral,5500a.jpg,3,2683,750712,,0,0,,0,0
2,female,neutral,7950b.jpg,2,1405,766080,,0,0,,0,0
2,female,negative,3150a.jpg,6,1730,783052,1,1898,791260,1,558,785900
2,female,negative,3001b.jpg,8,2534,800420,1,1086,807011,1,1667,803572
2,female,neutral,7026b.jpg,1,1538,815987,,0,0,1,574,819043
2,female,neutral,7550a.jpg,2,2131,833143,1,915,839967,1,1175,836207
2,female,negative,8485b.jpg,8,2583,850159,1,789,856471,1,979,852575
2,female,neutral,7038a.jpg,1,3041,867247,,0,0,,0,0
2,female,negative,6021a.jpg,9,2859,883711,1,1586,890543,1,959,885831
2,female,negative,9414a.jpg,9,2972,900455,1,1137,906659,1,1129,902631
2,female,neutral,2850a.jpg,1,3285,917331,1,1252,923338,1,793,918859
2,female,neutral,7006b.jpg,2,2449,933058,,0,0,1,973,935602
2,female,negative,3063a.jpg,8,2237,949410,1,950,956162,1,1257,952450
2,female,neutral,7040b.jpg,3,2034,965770,,0,0,,0,0
2,female,negative,9570a.jpg,6,1867,982250,,0,0,1,1387,985790
2,female,negative,3019b.jpg,5,0,996946,,0,0,1,422,1001470
2,female,neutral,7026a.jpg,1,1773,1015366,,0,0,1,1265,1018878
2,female,neutral,7042a.jpg,3,2074,1032230,1,1031,1039309,,0,0
2,female,negative,6570b.jpg,7,2154,1048957,1,1118,1055961,1,1230,1052053
2,female,neutral,7002b.jpg,2,1907,1065273,,0,0,,0,0
2,female,negative,3150b.jpg,6,1228,1081241,,0,0,1,1936,1085969
2,female,neutral,7010a.jpg,4,3920,1100497,,0,0,,0,0
2,female,neutral,7705a.jpg,3,3058,1116281,,0,0,,0,0
2,female,negative,8485a.jpg,7,1299,1131169,1,1591,1139501,1,747,1134637
2,female,negative,3063b.jpg,9,2260,1148693,1,1139,1155612,1,1472,1151925
2,female,neutral,5740a.jpg,2,3479,1166476,,0,0,1,1075,1168092
2,female,neutral,7009a.jpg,5,0,1179560,,0,0,,0,0
2,female,negative,3110b.jpg,6,2242,1198532,,0,0,1,686,1200996
2,female,neutral,7000b.jpg,4,3858,1216712,,0,0,,0,0
2,female,negative,3170b.jpg,7,2379,1231880,,0,0,1,1192,1234712
2,female,neutral,7080b.jpg,2,1488,1247552,,0,0,,0,0
2,female,neutral,7175a.jpg,1,1497,1264208,,0,0,,0,0
2,female,negative,3400a.jpg,6,3758,1283115,,0,0,1,994,1284371
2,female,neutral,7006a.jpg,2,1250,1297171,,0,0,,0,0
2,female,negative,6315a.jpg,8,2203,1314771,1,964,1321571,1,648,1317235
2,female,negative,9300a.jpg,4,2008,1331139,1,3608,1340779,1,1372,1334523
2,female,neutral,7493a.jpg,3,3305,1348999,1,1657,1355391,1,3733,1353447
2,female,negative,9410b.jpg,7,2109,1364367,1,782,1371079,1,897,1367175
2,female,negative,6021b.jpg,7,2849,1381670,1,700,1387630,1,1398,1384239
2,female,neutral,7034b.jpg,3,4142,1399593,,0,0,,0,0
2,female,negative,3100b.jpg,5,0,1412098,,0,0,1,791,1416990
2,female,neutral,2880a.jpg,4,2865,1431610,,0,0,,0,0
2,female,neutral,7042b.jpg,3,2187,1447578,1,986,1454498,,0,0
2,female,negative,9163a.jpg,6,4572,1466610,1,1540,1471618,1,1976,1468034
2,female,neutral,5870b.jpg,5,0,1478602,,0,0,1,580,1483282
2,female,negative,3071b.jpg,6,3394,1498642,,0,0,1,1809,1501077
2,female,neutral,7004a.jpg,5,0,1511812,,0,0,,0,0
2,female,neutral,2880b.jpg,4,2919,1531461,,0,0,,0,0
2,female,negative,3016b.jpg,6,4240,1549429,1,1048,1554277,1,1252,1550461
2,female,neutral,5740b.jpg,3,2549,1564301,,0,0,1,1473,1567245
2,female,neutral,7950a.jpg,3,2646,1580961,,0,0,,0,0
2,female,negative,3053a.jpg,6,2535,1597497,,0,0,1,1323,1600305
2,female,negative,3059a.jpg,5,0,1611526,,0,0,1,797,1616424
2,female,neutral,7038b.jpg,3,2484,1630656,,0,0,,0,0
2,female,negative,9414b.jpg,8,2302,1647188,1,1206,1654132,1,1034,1649940
2,female,negative,6550a.jpg,8,2907,1664356,1,915,1670404,1,1495,1666964
2,female,negative,7090a.jpg,3,2631,1680644,,0,0,1,1196,1683228
20,female,negative,1525a.jpg,4,2476,32879,5,0,38443,5,0,34423
20,female,neutral,2036b.jpg,1,1338,46303,1,2227,55231,9,1902,50887
20,female,negative,9570b.jpg,6,6337,65863,6,2057,69623,5,4629,68175
20,female,negative,3400a.jpg,6,1763,75851,7,2859,84987,2,2639,80747
20,female,neutral,5390a.jpg,1,2425,91075,9,1537,98227,9,2149,94819
20,female,neutral,2880b.jpg,3,3695,106907,8,2952,114203,7,3291,110523
20,female,negative,6315b.jpg,7,4526,122299,2,2982,128795,8,3778,125571
20,female,negative,6230a.jpg,5,0,132335,4,2883,143258,5,0,136355
20,female,neutral,7493b.jpg,1,2125,149022,5,0,154937,9,1321,152238
20,female,negative,3150a.jpg,8,2715,164174,4,2516,172014,1,1799,167278
20,female,neutral,7040a.jpg,1,3442,179462,5,0,184060,9,1734,181774
20,female,negative,6550b.jpg,6,1952,192534,3,2784,201406,4,4892,199494
20,female,neutral,7000a.jpg,1,2422,207566,9,1806,214990,9,1050,210214
20,female,neutral,7705b.jpg,1,3344,223050,9,2128,229874,9,1356,225082
20,female,negative,9163b.jpg,6,2663,236930,4,2447,244754,3,1907,240194
20,female,neutral,7010b.jpg,1,1756,250585,8,2972,259841,9,4139,256988
20,female,neutral,7090b.jpg,1,2082,265473,9,1170,272601,9,1246,268657
20,female,negative,3071b.jpg,8,2544,280497,3,1827,287885,2,2724,284697
20,female,negative,3170a.jpg,7,2440,295021,3,3040,303661,2,2172,298773
20,female,neutral,2036b.jpg,1,2454,309597,9,2078,317261,9,1698,312861
20,female,negative,3001a.jpg,8,2620,324325,2,1868,331613,2,2176,327901
20,female,negative,3019a.jpg,3,1931,338197,5,0,344306,5,1903,342189
20,female,neutral,5390b.jpg,1,1369,352197,8,3301,362169,9,749,355597
20,female,negative,3059b.jpg,7,1635,367025,3,3747,377177,3,2311,371721
20,female,neutral,2850b.jpg,1,2161,382113,5,2824,390816,9,3605,387577
20,female,negative,3016a.jpg,6,1311,395824,4,2327,404880,4,2259,400792
20,female,negative,3071a.jpg,7,2333,411408,5,0,417115,4,2881,415976
20,female,neutral,7002a.jpg,1,2019,425656,9,3711,435388,9,3503,431160
20,female,neutral,5500b.jpg,1,1885,440084,9,3397,449636,9,1729,443948
20,female,negative,3110a.jpg,6,2308,455068,4,2988,463788,4,1984,458764
20,female,neutral,7004b.jpg,2,1698,469020,9,3154,478516,8,3110,474452
20,female,negative,3170a.jpg,7,1936,483820,4,1552,491476,3,700,486604
20,female,neutral,7009b.jpg,1,1846,498292,8,1086,505636,9,1137,501603
20,female,negative,3400a.jpg,8,2605,513679,2,1165,520279,1,1169,516263
20,female,neutral,5870a.jpg,1,1267,526903,9,2243,535919,9,463,530119
20,female,neutral,7080b.jpg,1,705,540903,8,1209,549447,9,1285,545503
20,female,negative,3062b.jpg,6,2311,557071,5,0,562799,3,1892,560671
20,female,neutral,7175b.jpg,1,1846,571167,6,2182,579543,8,1490,574831
20,female,negative,9410a.jpg,7,2904,586787,2,2896,594819,4,2012,589915
20,female,negative,6230b.jpg,6,1798,600243,1,1972,608538,5,0,602465
20,female,neutral,7034a.jpg,2,1312,614402,8,2568,623698,8,1204,618314
20,female,negative,6570a.jpg,6,1414,629066,4,2988,638746,4,1258,632994
20,female,negative,3100a.jpg,6,2602,644882,4,3286,653606,5,2774,649074
20,female,neutral,5500a.jpg,1,1216,658058,6,3220,668118,9,600,661462
20,female,neutral,7950b.jpg,1,2746,674166,5,0,679460,8,1566,677006
20,female,negative,3150a.jpg,8,1640,687622,3,1704,695726,1,1132,691134
20,female,negative,3001b.jpg,8,2054,702598,3,1534,710118,2,1754,706318
20,female,neutral,7026b.jpg,1,1764,716870,9,1913,725058,9,3008,722134
20,female,neutral,7550a.jpg,1,855,730522,9,878,738585,9,1114,734801
20,female,negative,8485b.jpg,5,0,744229,4,1432,753865,5,0,748329
20,female,neutral,7038a.jpg,2,1467,760425,5,0,766997,8,3407,766385
20,female,negative,6021a.jpg,7,1986,775505,1,2978,784537,4,550,778089
20,female,negative,9414a.jpg,6,2136,790217,5,0,796202,5,0,792101
20,female,neutral,2850a.jpg,1,2574,805317,8,3182,813965,9,2346,809109
20,female,neutral,7006b.jpg,2,3532,820837,7,2442,827869,5,0,821325
20,female,negative,3063a.jpg,7,2119,834069,3,1582,841572,3,3155,839125
20,female,neutral,7040b.jpg,2,3164,849676,7,2586,857204,7,2215,852812
20,female,negative,9570a.jpg,5,0,861140,4,2109,871372,3,2203,867444
20,female,negative,3019b.jpg,6,1883,877668,5,0,883825,3,315,880120
20,female,neutral,7026a.jpg,1,1733,892080,9,1189,899576,9,2817,897184
20,female,neutral,7042a.jpg,1,651,905560,9,1539,914488,9,279,909208
20,female,negative,6570b.jpg,6,1825,921296,2,847,928440,5,0,923490
20,female,neutral,7002b.jpg,1,620,934736,9,1276,943432,9,2264,940400
20,female,negative,3150b.jpg,8,1439,950116,2,830,957547,1,1026,953723
20,female,neutral,7010a.jpg,1,1484,964723,9,128,971407,5,0,967259
20,female,neutral,7705a.jpg,1,1290,979091,9,866,986707,9,222,982043
20,female,negative,8485a.jpg,5,0,992363,4,2109,1002595,4,2915,999379
20,female,negative,3063b.jpg,7,1523,1008531,3,443,1015491,3,951,1011979
20,female,neutral,5740a.jpg,1,433,1022003,9,638,1030247,9,289,1025879
20,female,neutral,7009a.jpg,1,708,1036839,9,1564,1045735,9,1600,1041751
20,female,negative,3110b.jpg,8,1890,1052583,4,129,1058862,3,1502,1056215
20,female,neutral,7000b.jpg,1,168,1065423,8,2855,1076150,9,1476,1070751
20,female,negative,3170b.jpg,7,2701,1082518,5,0,1087856,3,1993,1085830
20,female,neutral,7080b.jpg,1,1252,1095630,9,1936,1104354,9,1708,1100106
20,female,neutral,7175a.jpg,1,878,1109818,9,1158,1118138,9,3506,1116466
20,female,negative,3400a.jpg,8,2596,1126098,2,572,1132114,2,1056,1128578
20,female,neutral,7006a.jpg,1,1018,1139082,9,1768,1147938,9,1477,1143626
20,female,negative,6315a.jpg,5,0,1152692,2,1259,1162074,4,3218,1160010
20,female,negative,9300a.jpg,3,1253,1168590,4,3624,1179086,5,0,1171357
20,female,neutral,7493a.jpg,1,808,1182790,9,472,1190494,9,1011,1187013
20,female,negative,9410b.jpg,8,2069,1198613,4,1765,1206349,3,2105,1202669
20,female,negative,6021b.jpg,8,1395,1212501,2,2065,1221277,2,3751,1218877
20,female,neutral,7034b.jpg,3,1591,1227325,7,1367,1235141,8,1323,1231077
20,female,negative,3100b.jpg,7,833,1241129,3,1825,1250161,2,253,1244569
20,female,neutral,2880a.jpg,4,775,1255633,5,0,1262982,5,0,1258878
20,female,neutral,7042b.jpg,2,850,1270353,5,0,1277543,7,2486,1276009
20,female,negative,9163a.jpg,6,1480,1285545,6,1904,1294009,4,716,1288801
20,female,neutral,5870b.jpg,1,2285,1300912,5,0,1306666,9,3001,1305648
20,female,negative,3071b.jpg,7,1744,1314932,4,2120,1323348,3,288,1317496
20,female,neutral,7004a.jpg,1,294,1328044,9,966,1336756,9,2610,1334380
20,female,neutral,2880b.jpg,5,0,1342312,5,0,1350518,5,0,1346412
20,female,negative,3016b.jpg,6,1588,1358628,4,1172,1366252,4,376,1361436
20,female,neutral,5740b.jpg,1,426,1372028,9,2002,1381644,9,1262,1376884
20,female,neutral,7950a.jpg,1,420,1386584,8,980,1395184,9,836,1391020
20,female,negative,3053a.jpg,8,2218,1402944,3,1807,1410639,1,1094,1405904
20,female,negative,3059a.jpg,8,2766,1418120,2,813,1424207,2,3601,1422975
20,female,neutral,7038b.jpg,2,787,1430703,5,0,1437956,8,239,1434175
20,female,negative,9414b.jpg,6,1577,1446055,3,1392,1453991,5,0,1448498
20,female,negative,6550a.jpg,5,0,1459123,3,1459,1468787,5,0,1463222
20,female,negative,7090a.jpg,1,536,1474387,5,0,1481891,8,252,1478123
21,male,negative,1525a.jpg,7,3944,34657,5,0,38753,7,2228,36961
21,male,neutral,2036b.jpg,2,2190,47465,2,2606,55921,8,2722,52017
21,male,negative,9570b.jpg,3,2188,62025,4,3776,71653,2,3156,67013
21,male,negative,3400a.jpg,3,1182,75581,4,2863,85301,3,2667,81085
21,male,neutral,5390a.jpg,1,1717,90677,8,2829,99829,5,0,92980
21,male,neutral,2880b.jpg,2,1227,104749,8,2154,113716,8,3630,111172
21,male,negative,6315b.jpg,3,1977,120061,4,2992,129116,4,1996,124100
21,male,negative,6230a.jpg,6,1574,134220,5,0,140685,3,2766,139432
21,male,neutral,7493b.jpg,4,2569,149776,8,1705,156952,8,3149,154376
21,male,negative,3150a.jpg,3,1903,163672,4,2759,172568,4,2083,167872
21,male,neutral,7040a.jpg,1,1813,178144,8,1069,185440,8,1857,182208
21,male,negative,6550b.jpg,6,2475,193368,3,3164,202096,4,3024,197936
21,male,neutral,7000a.jpg,1,1226,206680,7,1937,215431,8,1566,211040
21,male,neutral,7705b.jpg,1,1244,221260,8,2251,230307,8,3424,227460
21,male,negative,9163b.jpg,6,1353,235931,7,3209,245827,4,2950,241548
21,male,neutral,7010b.jpg,1,1575,250715,8,584,257763,8,2171,255331
21,male,neutral,7090b.jpg,1,1886,265587,8,902,272643,8,1682,269403
21,male,negative,3071b.jpg,4,2060,280323,7,2932,289235,4,2816,285099
21,male,negative,3170a.jpg,4,2518,295343,4,1494,302359,4,2218,299063
21,male,neutral,2036b.jpg,1,1572,308959,8,1861,317287,9,2376,313783
21,male,negative,3001a.jpg,4,1683,323631,6,1907,331895,4,1607,327575
21,male,negative,3019a.jpg,3,1593,338103,6,1736,346286,4,493,341023
21,male,neutral,5390b.jpg,1,1246,352318,8,2566,361678,9,922,356014
21,male,negative,3059b.jpg,3,2632,368266,4,2153,375826,4,1492,371146
21,male,neutral,2850b.jpg,1,991,381186,8,567,388802,8,1467,385682
21,male,negative,3016a.jpg,4,2037,396794,6,2437,405234,4,2865,401642
21,male,negative,3071a.jpg,4,979,410298,4,3195,420554,4,639,413978
21,male,neutral,7002a.jpg,1,1113,424994,8,817,432738,8,1213,429114
21,male,neutral,5500b.jpg,1,1328,439770,8,716,447198,8,1264,443726
21,male,negative,3110a.jpg,4,1226,454230,4,913,461957,4,989,458013
21,male,neutral,7004b.jpg,1,1903,469469,7,2703,478309,8,2619,474205
21,male,negative,3170a.jpg,3,2253,484381,7,1901,492069,4,1761,487909
21,male,neutral,7009b.jpg,1,1452,498141,8,812,505541,8,1104,501813
21,male,negative,3400a.jpg,4,958,512209,3,2558,521849,4,1434,516705
21,male,neutral,5870a.jpg,1,2044,527857,8,1428,535281,9,2520,532353
21,male,neutral,7080b.jpg,1,1154,541529,8,3306,551721,7,430,544825
21,male,negative,3062b.jpg,5,0,554936,3,1897,564873,4,973,559929
21,male,neutral,7175b.jpg,1,934,570432,6,3462,581000,7,2002,575520
21,male,negative,9410a.jpg,4,2472,586532,3,2808,594908,5,0,588080
21,male,negative,6230b.jpg,3,2942,601564,7,2357,609100,5,0,602642
21,male,neutral,7034a.jpg,1,777,614044,6,2561,623868,5,0,617287
21,male,negative,6570a.jpg,4,1087,628916,5,0,635949,5,0,631849
21,male,negative,3100a.jpg,3,2074,644548,4,1218,651812,5,0,646494
21,male,neutral,5500a.jpg,1,705,657824,6,1497,666656,7,1729,662868
21,male,neutral,7950b.jpg,1,583,672264,6,999,680720,6,227,675928
21,male,negative,3150a.jpg,4,1517,687759,4,2346,696711,5,0,690262
21,male,negative,3001b.jpg,4,2863,703751,5,0,708927,4,1491,706399
21,male,neutral,7026b.jpg,1,894,716343,7,2918,726407,7,826,720295
21,male,neutral,7550a.jpg,1,1188,731199,7,2021,740155,5,0,734031
21,male,negative,8485b.jpg,2,1907,746563,3,2561,755339,5,0,748676
21,male,neutral,7038a.jpg,1,878,760179,3,2765,770187,5,0,763321
21,male,negative,6021a.jpg,3,1344,775291,4,2593,784579,4,1908,779875
21,male,negative,9414a.jpg,3,1407,789915,3,2366,798914,4,2914,795442
21,male,neutral,2850a.jpg,1,832,803902,6,1608,812718,6,481,807571
21,male,neutral,7006b.jpg,1,2582,820214,6,1334,827006,6,3258,824910
21,male,negative,3063a.jpg,2,2756,834950,3,2317,842550,4,1808,838022
21,male,neutral,7040b.jpg,1,2651,849406,7,2321,857198,5,0,850775
21,male,negative,9570a.jpg,2,949,862350,4,2326,871766,4,802,866222
21,male,negative,3019b.jpg,4,2708,878670,3,1944,885946,3,1520,881502
21,male,neutral,7026a.jpg,1,510,891034,8,862,899426,8,2370,896914
21,male,neutral,7042a.jpg,1,604,905690,8,651,913777,8,536,909642
21,male,negative,6570b.jpg,3,1457,921105,3,2360,930129,5,0,923667
21,male,neutral,7002b.jpg,1,2668,936961,6,2636,944969,6,2048,940361
21,male,negative,3150b.jpg,2,2147,951001,5,0,956894,4,1875,954749
21,male,neutral,7010a.jpg,1,1397,964813,7,2349,973805,6,2153,969589
21,male,neutral,7705a.jpg,1,683,978661,7,2403,988501,5,0,981998
21,male,negative,8485a.jpg,3,1446,994069,4,2298,1003045,5,0,996643
21,male,negative,3063b.jpg,3,1777,1009045,3,3145,1018453,3,2805,1014093
21,male,neutral,5740a.jpg,1,751,1022581,7,1706,1031576,6,455,1026305
21,male,neutral,7009a.jpg,4,2929,1039321,3,2680,1047128,5,3380,1043808
21,male,negative,3110b.jpg,3,670,1051640,3,3118,1062128,3,1810,1056800
21,male,neutral,7000b.jpg,1,1620,1067152,7,3140,1076712,7,2584,1072136
21,male,negative,3170b.jpg,2,1658,1081752,4,2696,1090912,5,0,1084114
21,male,neutral,7080b.jpg,1,717,1095456,7,2041,1104820,5,0,1098759
21,male,neutral,7175a.jpg,1,1015,1110316,6,2272,1119612,6,3723,1117044
21,male,negative,3400a.jpg,3,3310,1127172,3,1950,1133852,5,1802,1129684
21,male,neutral,7006a.jpg,1,380,1138804,6,2586,1149131,5,0,1142444
21,male,negative,6315a.jpg,2,2191,1155260,6,2348,1163539,5,0,1157089
21,male,negative,9300a.jpg,2,3953,1171667,3,2717,1178471,4,1609,1173343
21,male,neutral,7493a.jpg,1,1107,1183383,4,3043,1193439,5,0,1186296
21,male,negative,9410b.jpg,3,1766,1198687,4,3598,1208559,4,1746,1202687
21,male,negative,6021b.jpg,3,3172,1214655,3,3180,1222783,5,0,1215503
21,male,neutral,7034b.jpg,4,2919,1229047,3,1759,1235927,4,875,1231023
21,male,negative,3100b.jpg,3,2101,1242791,2,2993,1251723,4,421,1245131
21,male,neutral,2880a.jpg,2,1583,1256835,7,3916,1267290,5,0,1259272
21,male,neutral,7042b.jpg,1,1681,1271578,7,2089,1280106,5,0,1273917
21,male,negative,9163a.jpg,2,2860,1287402,3,1504,1294170,5,0,1288562
21,male,neutral,5870b.jpg,9,3847,1303034,8,2343,1309570,9,1323,1304530
21,male,negative,3071b.jpg,3,1797,1315546,3,3041,1324830,4,857,1318626
21,male,neutral,7004a.jpg,1,2031,1330342,7,3846,1340278,5,0,1332331
21,male,neutral,2880b.jpg,2,1426,1344382,7,1824,1352902,5,0,1346976
21,male,negative,3016b.jpg,3,1901,1359502,2,3033,1368758,5,0,1361621
21,male,neutral,5740b.jpg,1,1712,1373958,7,1808,1382094,7,3003,1379269
21,male,neutral,7950a.jpg,1,525,1387333,6,2301,1397149,7,1313,1392141
21,male,negative,3053a.jpg,2,2087,1403457,2,2134,1411625,5,0,1405390
21,male,negative,3059a.jpg,2,3602,1419617,2,2514,1426569,4,2390,1422425
21,male,neutral,7038b.jpg,1,1800,1432377,6,3001,1441697,5,0,1434597
21,male,negative,9414b.jpg,2,2667,1447889,2,2267,1455529,4,2919,1452161
21,male,negative,6550a.jpg,2,2009,1461793,3,1634,1469457,4,3258,1467061
21,male,negative,7090a.jpg,1,444,1474789,7,3531,1485916,8,536,1478901
22,female,negative,1525a.jpg,4,3377,33313,7,3305,41281,4,4143,38099
22,female,neutral,2036b.jpg,1,2191,46689,8,2498,55036,7,2767,51285
22,female,negative,9570b.jpg,6,2904,61964,5,1072,68172,4,2156,65236
22,female,negative,3400a.jpg,7,2471,76092,4,2911,84572,2,2235,79876
22,female,neutral,5390a.jpg,1,1981,90164,6,3005,99228,6,2457,94660
22,female,neutral,2880b.jpg,1,1971,104716,5,3291,114076,6,3231,109996
22,female,negative,6315b.jpg,5,3821,121128,4,3509,128856,4,1809,123136
22,female,negative,6230a.jpg,5,0,131868,5,2100,142008,4,1935,137823
22,female,neutral,7493b.jpg,1,3457,149887,5,0,154470,5,0,150450
22,female,negative,3150a.jpg,8,2823,163815,3,2552,171647,2,1963,166975
22,female,neutral,7040a.jpg,1,2011,177631,6,3723,187383,5,0,179640
22,female,negative,6550b.jpg,6,3069,193251,4,3365,201587,3,3225,197427
22,female,neutral,7000a.jpg,1,1619,206363,6,2459,215243,5,0,208764
22,female,neutral,7705b.jpg,1,3154,222459,6,2457,229802,6,2837,226162
22,female,negative,9163b.jpg,3,2703,236570,4,2199,244106,3,2867,240754
22,female,neutral,7010b.jpg,1,1453,249882,6,2762,259314,5,0,252449
22,female,neutral,7090b.jpg,1,2372,265446,7,3116,274230,6,2544,269638
22,female,negative,3071b.jpg,8,2482,280118,4,2354,288030,3,2102,283758
22,female,negative,3170a.jpg,7,2144,294342,4,2160,302397,3,2461,298678
22,female,neutral,2036b.jpg,5,3031,309790,7,2910,317709,6,2882,313661
22,female,negative,3001a.jpg,6,2956,324277,3,156,329517,5,0,325341
22,female,negative,3019a.jpg,5,0,335883,5,0,344006,4,2579,342561
22,female,neutral,5390b.jpg,2,2038,353233,6,1989,361305,5,0,355215
22,female,negative,3059b.jpg,7,1585,367425,5,0,373880,7,2877,372737
22,female,neutral,2850b.jpg,2,1607,382009,6,1999,390441,6,1963,386385
22,female,negative,3016a.jpg,7,1461,396425,4,1581,404584,3,1170,400153
22,female,negative,3071a.jpg,8,1068,410593,3,1063,418628,3,1427,414972
22,female,neutral,7002a.jpg,3,3421,427508,8,2501,434628,6,3393,431500
22,female,neutral,5500b.jpg,1,3851,442500,7,1139,447828,7,3679,446348
22,female,negative,3110a.jpg,8,2690,455900,7,1658,462908,2,2454,459684
22,female,neutral,7004b.jpg,1,2504,470276,7,1685,477580,5,0,471792
22,female,negative,3170a.jpg,8,2698,485115,4,854,491311,3,1450,487887
22,female,neutral,7009b.jpg,1,2820,499799,7,1285,506383,5,0,500999
22,female,negative,3400a.jpg,8,2647,514271,3,3687,523351,3,1475,517119
22,female,neutral,5870a.jpg,1,2405,528591,7,3629,537855,6,1905,532111
22,female,neutral,7080b.jpg,1,1691,542439,7,995,549863,5,0,544768
22,female,negative,3062b.jpg,8,1934,557327,4,1986,565419,2,3494,562907
22,female,neutral,7175b.jpg,1,1409,571363,5,0,578076,5,0,573974
22,female,negative,9410a.jpg,6,1954,586554,5,0,592639,4,1614,590234
22,female,negative,6230b.jpg,6,2969,602130,5,0,607201,4,1701,604882
22,female,neutral,7034a.jpg,2,3223,616946,7,3481,625322,5,0,617743
22,female,negative,6570a.jpg,3,1294,629662,5,0,636408,4,3482,635870
22,female,negative,3100a.jpg,7,2340,645270,5,0,650970,3,1816,648766
22,female,neutral,5500a.jpg,1,1841,659333,6,1506,667037,6,2957,664469
22,female,neutral,7950b.jpg,1,1944,673997,6,1367,681541,5,0,676073
22,female,negative,3150a.jpg,8,2035,688733,6,2579,697317,3,1551,692269
22,female,negative,3001b.jpg,8,2433,703693,4,2365,711665,2,2313,707593
22,female,neutral,7026b.jpg,1,2603,718425,6,1316,725257,5,0,719842
22,female,neutral,7550a.jpg,1,1974,732441,6,1134,739641,6,1658,736145
22,female,negative,8485b.jpg,6,1515,746544,5,0,753069,4,1800,750849
22,female,neutral,7038a.jpg,1,1810,761400,6,3631,771344,5,0,763610
22,female,negative,6021a.jpg,6,2404,776640,5,0,782275,4,1964,780220
22,female,negative,9414a.jpg,6,2791,791588,5,0,796837,4,2787,795604
22,female,neutral,2850a.jpg,1,3285,806644,5,0,811399,7,2153,809532
22,female,neutral,7006b.jpg,1,1603,819524,6,1729,827771,5,0,821941
22,female,negative,3063a.jpg,6,1621,834187,6,1005,841611,4,865,837451
22,female,neutral,7040b.jpg,1,1867,848995,6,1528,856775,5,0,851148
22,female,negative,9570a.jpg,6,2634,864407,5,0,869813,4,3318,869111
22,female,negative,3019b.jpg,7,2537,878871,4,1241,885615,3,2101,882455
22,female,neutral,7026a.jpg,1,2159,893055,6,1823,900759,6,563,895479
22,female,neutral,7042a.jpg,1,1157,906615,6,1978,915558,5,0,909478
22,female,negative,6570b.jpg,5,0,920103,5,0,928226,4,2525,926731
22,female,neutral,7002b.jpg,1,974,935722,6,2796,945666,5,0,938768
22,female,negative,3150b.jpg,7,2081,951474,4,1409,958842,3,2773,956186
22,female,neutral,7010a.jpg,1,903,964858,6,2349,974426,5,0,967975
22,female,neutral,7705a.jpg,1,2786,981386,6,2050,988770,5,0,982620
22,female,negative,8485a.jpg,6,2029,995274,6,2504,1003789,4,1445,998710
22,female,negative,3063b.jpg,8,1622,1009429,3,1718,1017565,2,1770,1013597
22,female,neutral,5740a.jpg,1,916,1023285,6,2652,1033061,6,1048,1027437
22,female,neutral,7009a.jpg,1,779,1037709,6,1179,1046149,6,1495,1042445
22,female,negative,3110b.jpg,8,1857,1053349,4,2089,1061621,4,2485,1057997
22,female,neutral,7000b.jpg,1,1735,1067789,6,739,1074833,5,0,1070074
22,female,negative,3170b.jpg,8,1465,1082081,4,2248,1090968,2,3436,1088072
22,female,neutral,7080b.jpg,1,1701,1096945,6,1172,1104536,5,0,1099264
22,female,neutral,7175a.jpg,1,1439,1111328,6,896,1118904,5,0,1113909
22,female,negative,3400a.jpg,8,1306,1125840,3,1970,1134544,2,2118,1130672
22,female,neutral,7006a.jpg,1,1856,1140952,6,3388,1150604,5,0,1143116
22,female,negative,6315a.jpg,6,1567,1155308,5,0,1161781,4,1411,1159172
22,female,negative,9300a.jpg,7,1421,1169724,5,0,1176343,3,680,1173003
22,female,neutral,7493a.jpg,1,1530,1184395,6,779,1191763,5,0,1186884
22,female,negative,9410b.jpg,7,1917,1199427,4,2357,1207907,3,993,1202523
22,female,negative,6021b.jpg,6,1924,1213995,5,0,1220111,3,800,1216891
22,female,neutral,7034b.jpg,1,2270,1228903,6,1868,1236623,5,0,1230653
22,female,negative,3100b.jpg,8,2681,1243959,3,2114,1251495,2,1957,1247255
22,female,neutral,2880a.jpg,2,1052,1256959,5,0,1264030,5,0,1259927
22,female,neutral,7042b.jpg,1,2694,1273246,6,640,1279310,5,0,1274572
22,female,negative,9163a.jpg,6,2273,1287470,4,949,1294186,4,933,1290150
22,female,neutral,5870b.jpg,1,1395,1301154,7,1491,1309290,7,2343,1306122
22,female,negative,3071b.jpg,8,1562,1315882,3,2842,1325202,2,758,1319098
22,female,neutral,7004a.jpg,1,1744,1330626,6,751,1337753,5,0,1332902
22,female,neutral,2880b.jpg,2,1915,1345442,5,0,1351650,5,0,1347547
22,female,negative,3016b.jpg,7,1717,1359889,4,1873,1368085,3,1345,1363537
22,female,neutral,5740b.jpg,1,1511,1374245,6,3911,1384685,6,475,1377229
22,female,neutral,7950a.jpg,1,1773,1389069,5,0,1395414,5,0,1391316
22,female,negative,3053a.jpg,7,2120,1404061,4,1096,1411077,4,428,1406389
22,female,negative,3059a.jpg,7,1654,1418157,4,942,1425485,3,522,1421045
22,female,neutral,7038b.jpg,2,1355,1432420,5,0,1439104,4,848,1435932
22,female,negative,9414b.jpg,7,1374,1447000,5,0,1453666,4,850,1450496
22,female,negative,6550a.jpg,7,1900,1462088,5,0,1468228,4,360,1464568
22,female,negative,7090a.jpg,1,1434,1476184,6,2897,1485768,5,0,1478770
23,female,negative,1525a.jpg,3,3558,34836,6,2662,41980,3,2250,37548
23,female,neutral,2036b.jpg,1,2548,48388,7,2725,56668,7,2240,52100
23,female,negative,9570b.jpg,6,2648,63116,4,2932,71440,2,1864,66352
23,female,negative,3400a.jpg,7,3250,78280,4,2298,85368,1,1638,80688
23,female,neutral,5390a.jpg,2,1672,91264,7,2504,100135,8,2044,95656
23,female,neutral,2880b.jpg,5,0,104153,4,2370,114647,4,1800,110055
23,female,negative,6315b.jpg,6,2545,121343,4,2201,129039,4,2613,125431
23,female,negative,6230a.jpg,5,0,133360,4,2107,143507,4,1895,139275
23,female,neutral,7493b.jpg,3,3057,150979,7,2649,158611,6,3541,155483
23,female,negative,3150a.jpg,6,2511,164995,5,0,170523,5,0,166504
23,female,neutral,7040a.jpg,3,1854,178899,6,2344,187514,5,0,181065
23,female,negative,6550b.jpg,6,1992,193682,4,3320,203050,5,0,195710
23,female,neutral,7000a.jpg,3,2982,209234,6,2106,216398,6,1746,212018
23,female,neutral,7705b.jpg,3,2664,223478,6,2732,231670,5,0,224834
23,female,negative,9163b.jpg,6,2147,237606,4,2139,245638,3,1895,241374
23,female,neutral,7010b.jpg,3,1993,252014,5,0,258141,5,0,254041
23,female,neutral,7090b.jpg,4,2963,267629,5,0,272791,5,0,268686
23,female,negative,3071b.jpg,7,2046,281357,3,2202,289553,1,1802,285133
23,female,negative,3170a.jpg,8,2120,295993,3,2592,304505,1,1212,299105
23,female,neutral,2036b.jpg,2,1591,310025,6,2303,318777,6,2307,314761
23,female,negative,3001a.jpg,8,1989,324985,2,773,331809,1,1081,328097
23,female,negative,3019a.jpg,6,3987,341545,4,2105,347769,4,2199,343841
23,female,neutral,5390b.jpg,4,2490,354676,6,1758,361984,6,1566,357772
23,female,negative,3059b.jpg,7,1664,368412,3,1096,375884,1,1660,372428
23,female,neutral,2850b.jpg,4,2302,383612,6,510,389860,6,1842,387172
23,female,negative,3016a.jpg,7,2012,397884,3,1613,405524,1,1225,401116
23,female,negative,3071a.jpg,7,2251,412684,2,1714,420252,1,2935,417388
23,female,neutral,7002a.jpg,3,2590,427652,7,1922,435024,6,2110,431192
23,female,neutral,5500b.jpg,2,2248,441871,7,1856,449519,6,2228,445871
23,female,negative,3110a.jpg,8,1950,456135,2,2142,464367,1,3450,461655
23,female,neutral,7004b.jpg,2,2156,470903,6,2028,478815,6,2744,475511
23,female,negative,3170a.jpg,8,2242,485551,2,1459,492807,1,1102,488431
23,female,neutral,7009b.jpg,2,2169,500039,6,2365,508275,6,1541,503431
23,female,negative,3400a.jpg,8,2691,515123,3,1578,522050,1,1055,517507
23,female,neutral,5870a.jpg,2,2024,529018,8,2448,537482,7,1532,532546
23,female,neutral,7080b.jpg,2,2263,543818,7,1831,551426,7,2267,547842
23,female,negative,3062b.jpg,9,3589,559706,2,1029,565186,1,2649,562786
23,female,neutral,7175b.jpg,2,2099,572778,6,2703,581422,7,2323,577022
23,female,negative,9410a.jpg,7,2221,587462,4,2598,595878,2,1409,590670
23,female,negative,6230b.jpg,6,2539,602341,4,1019,608861,4,2087,605909
23,female,neutral,7034a.jpg,4,2401,616765,6,2351,624837,5,0,618384
23,female,negative,6570a.jpg,6,2484,631493,4,2884,639933,4,2352,635381
